"time_s","lin_acc_x","lin_acc_y","lin_acc_z","lin_acc_abs"
1.325289380E-1,3.787946701E-2,-3.139193058E-1,9.769105911E-1,1.026807912E0
1.510922720E-1,4.133576155E-1,-5.258526802E-1,9.649896622E-1,1.174133982E0
1.696555530E-1,-5.760455132E-2,-4.080257416E-1,-4.403686523E-2,4.144183099E-1
1.882368550E-1,1.886783242E-1,-1.002361774E0,-4.039573669E-2,1.020764641E0
2.067822200E-1,2.467319071E-1,-7.685143948E-1,3.245983124E-1,8.699741797E-1
2.253455530E-1,5.068989396E-1,-5.706827641E-1,-2.595729828E-1,8.062279365E-1
2.439568550E-1,7.897915840E-1,-7.118165493E-1,-4.690217972E-1,1.162082180E0
2.625199280E-1,4.725559950E-1,-8.854827881E-1,3.280124664E-1,1.055926662E0
2.810843550E-1,2.217557132E-1,-9.229481220E-1,1.904253006E0,2.127719047E0
2.995988340E-1,5.759698153E-2,-5.772893429E-1,1.747902870E0,1.841669037E0
3.181621670E-1,6.696683168E-2,-4.144279957E-1,1.306758881E0,1.372535570E0
3.367743550E-1,1.763547659E-1,-4.761281013E-1,6.239585876E-1,8.044397376E-1
3.553236260E-1,3.465091586E-1,-4.273543358E-1,-4.110383987E-1,6.867698964E-1
3.738998760E-1,3.895579278E-1,-3.387739658E-1,-9.982452393E-1,1.123840174E0
3.924154490E-1,4.158679843E-1,-3.580050468E-1,-9.436922073E-1,1.091635826E0
4.109962820E-1,4.383541346E-1,-2.599682808E-1,-5.347900391E-1,7.387409831E-1
4.295898240E-1,4.607129395E-1,-2.128100395E-1,1.073932648E-2,5.076020673E-1
4.481531570E-1,4.079505801E-1,-3.821246624E-1,6.470289230E-1,8.550376370E-1
4.666687300E-1,2.681160271E-1,-4.502673149E-1,8.914680481E-1,1.034090006E0
4.852320630E-1,-2.605712414E-2,-4.465467930E-1,6.267967224E-1,7.700371051E-1
5.038434170E-1,5.225853324E-1,6.930446625E-2,2.941656113E-1,6.036819904E-1
5.223766990E-1,1.035396099E0,-2.017543316E-1,1.710987091E-1,1.068655539E0
5.409400320E-1,7.716398239E-1,-3.181495667E-1,-1.152782440E-1,8.425771408E-1
5.594853450E-1,5.139742494E-1,-3.389461040E-1,-4.265336990E-1,7.489893103E-1
5.780486780E-1,2.283300161E-1,-1.456422806E-1,-1.089067459E-1,2.919022944E-1
5.966597200E-1,7.352616787E-1,1.599509716E-1,-3.526878357E-2,7.532847646E-1
6.151925320E-1,1.004273295E0,-4.043240547E-1,-3.375482559E-1,1.134011295E0
6.337864380E-1,7.044671178E-1,1.219916344E-2,-1.881923676E-1,7.292729988E-1
6.523019590E-1,7.007670999E-1,5.626082420E-2,-1.317644119E-1,7.152633563E-1
6.709570630E-1,4.839442968E-1,-1.965975761E-2,-1.092710495E-1,4.965166168E-1
6.894774800E-1,6.800079346E-1,-2.084205151E-1,-6.791591644E-2,7.144665660E-1
7.080396670E-1,7.588871717E-1,-1.430470943E-1,-4.525089264E-2,7.735760169E-1
7.265552400E-1,6.244624853E-1,-1.009523869E-1,-1.110239029E-1,6.422391198E-1
7.451185740E-1,5.619860291E-1,-1.027691364E-1,-1.109018326E-1,5.819699381E-1
7.637296670E-1,4.848578870E-1,-3.588581085E-2,-2.191095352E-1,5.332766172E-1
7.822930010E-1,4.645220637E-1,1.292395592E-2,-1.718282700E-1,4.954520468E-1
8.008562820E-1,5.689355731E-1,-2.781343460E-2,-3.887691498E-1,6.896395619E-1
8.193718550E-1,5.884780884E-1,1.833844185E-2,-4.811277390E-1,7.603464080E-1
8.379351880E-1,5.367084742E-1,9.269523621E-2,3.229904175E-2,5.456112363E-1
8.565164900E-1,5.731748343E-1,8.803081512E-2,1.421184540E-1,5.970565049E-1
8.750798240E-1,6.159654856E-1,1.295394897E-1,8.342456818E-2,6.349437907E-1
8.936431050E-1,4.016346335E-1,1.590299606E-1,-5.546474457E-2,4.355195118E-1
9.121884700E-1,3.956845403E-1,1.687431335E-1,1.413726807E-2,4.303955888E-1
9.308433130E-1,6.442904472E-1,1.742937565E-1,-5.671501160E-2,6.698545264E-1
9.493628450E-1,7.366486788E-1,1.690218449E-1,-1.634416580E-1,7.732611691E-1
9.679261780E-1,8.463063240E-1,1.958746910E-1,2.413663864E-1,9.015869460E-1
9.864417510E-1,6.808690429E-1,2.871756554E-1,4.616060257E-1,8.712821779E-1
1.005005084E0,7.213341594E-1,-3.617691994E-2,-3.745079041E-3,7.222504861E-1
1.023617480E0,4.114890695E-1,5.549349785E-1,7.346630096E-2,6.947469914E-1
1.042179459E0,1.110480189E0,2.952814102E-1,-2.297620773E-1,1.171813967E0
1.060742792E0,1.012760043E0,3.085932732E-1,4.284143448E-1,1.142125897E0
1.079258365E0,1.017072797E0,1.583504677E-2,9.269247055E-1,1.376182122E0
1.097821699E0,9.872449636E-1,-3.085676432E-1,1.566567421E0,1.877232030E0
1.116432740E0,6.452888846E-1,-4.497877359E-1,1.606450081E0,1.788683486E0
1.134996074E0,4.416353703E-1,-5.654006600E-1,1.441013336E0,1.609732630E0
1.153559407E0,6.433384418E-1,-7.090671062E-1,1.009788513E0,1.391521956E0
1.172074980E0,6.405224204E-1,-5.008326173E-1,6.082448959E-1,1.015413283E0
1.190638313E0,8.328603506E-1,-2.823174000E-1,3.753900528E-1,9.561784194E-1
1.209219615E0,6.961330175E-1,-3.612810373E-1,3.489446640E-1,8.584215425E-1
1.227782897E0,5.277925134E-1,-7.573883533E-1,7.876100540E-1,1.213479152E0
1.246328261E0,-3.835678101E-3,-8.856400847E-1,5.146894455E-1,1.024342861E0
1.264891595E0,-9.968304634E-2,-1.172044992E0,-5.492210388E-2,1.177557902E0
1.283502897E0,-1.858560443E-1,-1.239304304E0,-6.283760071E-1,1.401882318E0
1.302065970E0,-5.438965559E-2,-1.153043985E0,-1.124478340E0,1.611496263E0
1.320629303E0,3.153459430E-1,-1.138083935E0,-1.230915070E0,1.705822387E0
1.339144876E0,4.670085907E-1,-1.044584751E0,-9.485006332E-1,1.486239475E0
1.357708209E0,5.304169655E-1,-1.099380255E0,-4.900512695E-1,1.315343814E0
1.376320345E0,5.659932494E-1,-1.313847780E0,-2.069683075E-1,1.445468861E0
1.394882584E0,4.002423882E-1,-1.338589907E0,2.077960968E-2,1.397300504E0
1.413446959E0,3.129667044E-1,-1.242671728E0,9.079837799E-2,1.284688884E0
1.431961490E0,1.199387908E-1,-1.075018406E0,-1.543722153E-1,1.092648465E0
1.450524772E0,-7.352840900E-2,-9.890069962E-1,-5.401277542E-1,1.129282629E0
1.469135865E0,-2.176802158E-1,-7.200965881E-1,-8.471240997E-1,1.132935573E0
1.487700345E0,-1.798447371E-1,-3.757401705E-1,-1.195464134E0,1.265961809E0
1.506214772E0,-2.940064073E-1,-3.110065460E-1,-1.481377602E0,1.541961231E0
1.524778053E0,-3.249079585E-1,-3.986761570E-1,-1.465636253E0,1.553253838E0
1.543389407E0,-4.061918259E-1,-2.683176994E-1,-8.223791122E-1,9.556639532E-1
1.561922688E0,-3.119586706E-1,-2.653409243E-1,-2.328758240E-1,4.711211815E-1
1.580486022E0,-2.435329556E-1,-2.737172842E-1,-3.990459442E-2,3.685401319E-1
1.599031334E0,-3.059289455E-1,-1.618174314E-1,1.277141571E-1,3.689014865E-1
1.617594667E0,-3.032817245E-1,5.986833572E-2,2.123889923E-1,3.750641359E-1
1.636205761E0,-2.586444020E-1,7.452571392E-2,2.340354919E-1,3.566842024E-1
1.654770136E0,-2.372155190E-1,1.325070858E-2,2.866487503E-1,3.723094006E-1
1.673332376E0,-4.800453782E-1,6.000757217E-3,3.854742050E-1,6.156865574E-1
1.691847949E0,-6.090672016E-1,-1.009225845E-3,6.826620102E-1,9.148722833E-1
1.710411282E0,-5.520551801E-1,2.153980732E-2,8.331165314E-1,9.996559608E-1
1.729023470E0,-4.104747772E-1,-6.643915176E-2,8.719892502E-1,9.660584641E-1
1.747585657E0,-3.453158140E-1,-9.662401676E-2,1.012944221E0,1.074539533E0
1.766101230E0,-2.611207962E-1,-1.233561039E-1,1.307594299E0,1.339105541E0
1.784664563E0,-6.249696016E-2,-1.917599440E-1,1.327894211E0,1.343123517E0
1.803245865E0,-3.255277872E-2,-3.253060579E-1,9.649209976E-1,1.018801377E0
1.821809147E0,-8.443796635E-2,-2.425935268E-1,7.190151215E-1,7.635208801E-1
1.840372428E0,-5.270475149E-2,-7.848894596E-2,3.596019745E-1,3.718223844E-1
1.858917845E0,2.596640289E-1,-2.821522951E-1,1.501359940E-1,4.117962387E-1
1.877481126E0,6.325748563E-1,-4.611301422E-1,6.897068024E-2,7.858428034E-1
1.896092220E0,9.814943075E-1,-5.719234943E-1,7.027940750E-1,1.335794547E0
1.914655501E0,9.479691386E-1,-7.268673778E-1,1.562221527E0,1.966600562E0
1.933218834E0,7.125493288E-1,-1.005753517E0,2.173187256E0,2.498401395E0
1.951734407E0,7.284976840E-1,-1.234507322E0,2.156738281E0,2.589640365E0
1.970297740E0,7.817362547E-1,-9.965685606E-1,1.580137253E0,2.025115850E0
1.988909876E0,9.569785595E-1,-7.138500810E-1,3.072328568E-1,1.232794358E0
2.007424355E0,1.292912126E0,-7.486460805E-1,-8.610010147E-1,1.724359436E0
2.025974772E0,1.159679651E0,-7.345936298E-1,-1.551801682E0,2.071852590E0
2.044551022E0,9.657906890E-1,-6.709942818E-1,-1.924884796E0,2.255696447E0
2.063162324E0,1.176467776E0,-7.060530186E-1,-1.730474949E0,2.208422705E0
2.081695657E0,1.352310777E0,-7.950592041E-1,-1.258662224E0,2.011241947E0
2.100258938E0,1.100495100E0,-8.458244205E-1,-7.451438904E-1,1.575356415E0
2.118804303E0,7.190215588E-1,-8.636551499E-1,-2.501077652E-1,1.151280207E0
2.137367636E0,4.447863102E-1,-8.431177735E-1,-4.510879517E-4,9.532484698E-1
2.155979772E0,9.132224321E-2,-7.402014732E-1,4.308032990E-2,7.470568171E-1
2.174543053E0,-9.701228142E-2,-6.580574512E-1,-3.270263672E-1,7.412133544E-1
2.193105292E0,4.861485958E-2,-4.419635534E-1,-7.292461395E-1,8.541048643E-1
2.211620865E0,2.459814548E-1,-2.149868011E-1,-9.621553421E-1,1.016104868E0
2.230184199E0,3.929383159E-1,-1.287217140E-1,-1.087367058E0,1.163330099E0
2.248795240E0,5.671858788E-1,-1.442676783E-1,-9.341373444E-1,1.102327339E0
2.267359667E0,7.672275901E-1,-1.075955629E-1,-6.654386520E-1,1.021285259E0
2.285874147E0,9.206081033E-1,-1.443997622E-1,-4.445762634E-1,1.032481780E0
2.304437480E0,9.115122557E-1,-1.220294237E-1,-3.594951630E-1,9.874120440E-1
2.323049615E0,8.167124391E-1,-7.836174965E-2,-1.634082794E-1,8.365775742E-1
2.341611855E0,6.819353700E-1,-6.794512272E-2,-3.211975098E-3,6.853194184E-1
2.360175188E0,5.073129535E-1,-7.407164574E-2,1.290388107E-1,5.286814316E-1
2.378690761E0,4.058026075E-1,-3.506278992E-2,2.652273178E-1,4.860562577E-1
2.397254042E0,3.866841793E-1,-8.048057556E-2,2.076454163E-1,4.462268442E-1
2.415835345E0,3.105843067E-1,-1.300396919E-1,1.418943405E-1,3.653860109E-1
2.434398678E0,2.332437038E-1,-1.561940908E-1,2.590160370E-1,3.819535663E-1
2.452962011E0,2.075975537E-1,-1.694860458E-1,4.278917313E-1,5.048896887E-1
2.471507324E0,2.797667980E-1,-2.051385641E-1,5.803022385E-1,6.760931738E-1
2.490070657E0,3.121305108E-1,-2.568088770E-1,5.816345215E-1,7.082901748E-1
2.508681699E0,3.089691401E-1,-2.870794535E-1,5.842571259E-1,7.205781923E-1
2.527244980E0,5.490458012E-2,-3.467500210E-2,5.796089172E-1,5.832352575E-1
2.545760605E0,-1.199874282E-1,1.368916035E-1,5.750722885E-1,6.031951849E-1
2.564323938E0,1.080267429E-1,1.645673513E-1,6.818532944E-1,7.097014199E-1
2.582935188E0,3.601523042E-1,-1.734960079E-2,8.735837936E-1,9.450710742E-1
2.601499459E0,2.115253210E-1,-3.873084784E-1,1.337232590E0,1.408169669E0
2.620061855E0,-8.076930046E-2,-7.866786718E-1,1.725417137E0,1.898012463E0
2.638577220E0,-2.972226739E-1,-1.061248064E0,1.753076553E0,2.070716343E0
2.657140501E0,-3.797609210E-1,-1.095583439E0,1.173423767E0,1.649680201E0
2.675751542E0,-2.327644229E-1,-1.093382359E0,4.794425964E-1,1.216359101E0
2.694314876E0,-1.806783676E-1,-1.046906233E0,-3.025884628E-1,1.104634379E0
2.712878209E0,-2.798326015E-1,-1.075570226E0,-8.891620636E-1,1.423294337E0
2.731393782E0,-4.600846767E-1,-1.249037266E0,-1.097146034E0,1.724964180E0
2.749957115E0,-8.162223697E-1,-1.412275076E0,-9.771547318E-1,1.901465544E0
2.768595813E0,-9.721310139E-1,-1.627295732E0,-6.288709641E-1,1.997150169E0
2.787131490E0,-6.807649732E-1,-1.802579999E0,-1.774816513E-1,1.935002671E0
2.805647063E0,-2.071273923E-1,-1.882697225E0,2.537164688E-1,1.910974265E0
2.824210345E0,2.103847265E-1,-1.691764355E0,4.781227112E-1,1.770573266E0
2.842776855E0,1.971767247E-1,-1.538813353E0,4.002752304E-1,1.602200192E0
2.861354980E0,-1.482973695E-1,-1.463020086E0,-3.395652771E-2,1.470908878E0
2.879918261E0,-4.055964947E-1,-1.401087284E0,-5.852203369E-1,1.571635116E0
2.898463626E0,-4.682997465E-1,-1.275579929E0,-1.023367882E0,1.701085133E0
2.917026959E0,-3.409408927E-1,-1.136602879E0,-1.187008858E0,1.678420932E0
2.935638001E0,-2.086318731E-1,-1.046748400E0,-1.056671143E0,1.501919896E0
2.954201334E0,-2.506440282E-1,-9.714319110E-1,-7.220706940E-1,1.236077859E0
2.972765761E0,-3.563985825E-1,-8.977198601E-1,-5.378952026E-1,1.105555130E0
2.991280188E0,-4.224123955E-1,-8.329982758E-1,-4.401788712E-1,1.032509466E0
3.009843522E0,-5.878127217E-1,-7.552863359E-1,-3.952550888E-1,1.035474688E0
3.028454563E0,-6.013498902E-1,-7.800225019E-1,-4.364423752E-1,1.077283037E0
3.047017949E0,-6.072675586E-1,-6.804642677E-1,-3.121643066E-1,9.639772102E-1
3.065533470E0,-5.312469006E-1,-5.854052305E-1,-7.034206390E-2,7.936438491E-1
3.084096803E0,-5.910347104E-1,-5.941302776E-1,3.031692505E-1,8.911926897E-1
3.102663157E0,-6.801700592E-1,-6.450711489E-1,7.481489182E-1,1.199364373E0
3.121271178E0,-6.783379316E-1,-6.147341728E-1,1.134885788E0,1.458083058E0
3.139834459E0,-5.889189243E-1,-6.912437677E-1,1.296718597E0,1.583073772E0
3.158350032E0,-5.781264305E-1,-7.885732651E-1,1.295808792E0,1.623329415E0
3.176913365E0,-7.655121684E-1,-8.312000036E-1,9.022388458E-1,1.446007352E0
3.195524407E0,-7.654190660E-1,-8.143777847E-1,3.188438416E-1,1.162212940E0
3.214087740E0,-4.393163323E-1,-7.799710035E-1,-1.984405518E-2,8.954034804E-1
3.232651074E0,-6.109827757E-2,-6.455168724E-1,1.074247360E-1,6.572405237E-1
3.251166647E0,5.956727266E-2,-7.816014290E-1,8.056278229E-1,1.124048594E0
3.269729928E0,-1.524911970E-1,-9.435491562E-1,1.584291458E0,1.850275115E0
3.288311230E0,-2.417662889E-1,-9.575401545E-1,2.059826851E0,2.284342518E0
3.306874511E0,5.900415033E-2,-9.676421285E-1,1.734936714E0,1.987414949E0
3.325419876E0,2.534936965E-1,-8.434394002E-1,7.192440033E-1,1.137084435E0
3.343983209E0,2.165386677E-1,-7.129385471E-1,-1.185970306E-1,7.544770522E-1
3.362546542E0,3.111270964E-1,-7.531729937E-1,-6.302909851E-1,1.030211801E0
3.381109824E0,5.120011568E-1,-8.580411673E-1,-6.300230026E-1,1.181231905E0
3.399722011E0,5.818041563E-1,-8.846349716E-1,-3.745946884E-1,1.123119001E0
3.418236490E0,5.725358129E-1,-1.024432778E0,-1.721448898E-1,1.186125473E0
3.436799772E0,6.617054343E-1,-1.159190416E0,-5.325889587E-2,1.335819229E0
3.455410865E0,6.658033133E-1,-1.063498616E0,-8.398437500E-2,1.257528025E0
3.473974147E0,5.532824397E-1,-9.304055572E-1,-2.473354340E-1,1.110383166E0
3.492538574E0,2.490172386E-1,-8.767180443E-1,-6.565656662E-1,1.123264256E0
3.511053053E0,5.460408330E-2,-8.746677637E-1,-9.940204620E-1,1.325179981E0
3.529616334E0,-4.182961956E-2,-7.940239906E-1,-1.189547539E0,1.430820451E0
3.548227428E0,-2.203432322E-1,-7.774266005E-1,-1.285457611E0,1.518336105E0
3.566790709E0,-3.443767726E-1,-8.073568344E-1,-1.175982475E0,1.467431498E0
3.585306282E0,-2.753703594E-1,-7.028923035E-1,-7.942228317E-1,1.095753773E0
3.603869615E0,-2.089474052E-1,-6.543569565E-1,-3.965244293E-1,7.931416442E-1
3.622480917E0,-1.938472092E-1,-6.916478872E-1,-2.090606689E-1,7.481042065E-1
3.641014251E0,-2.855765522E-1,-7.227406502E-1,-1.236906052E-1,7.868973125E-1
3.659577532E0,-1.812449247E-1,-7.860572338E-1,4.405689240E-2,8.078840927E-1
3.678122897E0,-3.248771131E-1,-6.039186716E-1,5.564928055E-1,8.831461618E-1
3.696686178E0,-4.209565818E-1,-6.212593317E-1,9.129438400E-1,1.181792730E0
3.715297272E0,-4.636447430E-1,-7.414137125E-1,8.622198105E-1,1.228040611E0
3.733860605E0,-4.965296090E-1,-6.710221767E-1,6.081390381E-1,1.032785314E0
3.752423886E0,-3.174296618E-1,-5.806789398E-1,3.437118530E-1,7.457127190E-1
3.770939459E0,-2.334442735E-1,-5.996161699E-1,1.653718948E-1,6.643671001E-1
3.789502740E0,-2.528193593E-1,-6.524550915E-1,4.092912674E-1,8.106384005E-1
3.808114980E0,-3.413892388E-1,-7.525838614E-1,9.809093475E-1,1.282619284E0
3.826677115E0,-3.078410029E-1,-9.451269507E-1,1.370324135E0,1.692873082E0
3.845192688E0,-1.999911219E-1,-1.051001668E0,1.360009193E0,1.730383183E0
3.863756022E0,-3.601163626E-3,-9.957247972E-1,1.022196770E0,1.427013341E0
3.882368417E0,-2.451030910E-2,-8.525813818E-1,4.243097305E-1,9.526460598E-1
3.900930345E0,-4.339726567E-1,-6.251548529E-1,-1.399011612E-1,7.737720541E-1
3.919493678E0,-8.240488768E-1,-3.941169977E-1,-3.748359680E-1,9.873635410E-1
3.938009251E0,-7.114443779E-1,-3.824781179E-1,-2.520198822E-1,8.461422071E-1
3.956572584E0,-1.682464033E-1,-9.575457573E-1,7.359313965E-2,9.749957332E-1
3.975153834E0,1.145481169E-1,-1.504535198E0,8.873472214E-1,1.750466374E0
3.993699199E0,-2.568499446E-1,-1.730295420E0,1.209484100E0,2.126674851E0
4.012262532E0,-6.327680349E-1,-1.789151192E0,4.932994843E-1,1.960816604E0
4.030825813E0,-9.583559036E-1,-1.619262099E0,-4.888525009E-1,1.944076272E0
4.049389147E0,-9.775650501E-1,-1.525880814E0,-9.629907608E-1,2.052144461E0
4.068000449E0,-9.924369454E-1,-1.533116341E0,-6.978158951E-1,1.955076425E0
4.086563522E0,-7.830748558E-1,-1.790287495E0,2.550792694E-2,1.954222658E0
4.105079095E0,-7.378603220E-1,-2.065718412E0,8.066034317E-1,2.337143451E0
4.123642428E0,-4.774563313E-1,-2.171283007E0,1.330782890E0,2.591026350E0
4.142253470E0,-2.439183146E-1,-1.939777851E0,1.493722916E0,2.460374444E0
4.161220865E0,-1.173388064E-1,-1.693949819E0,8.080720901E-1,1.880482621E0
4.180154251E0,-3.679266870E-1,-1.441941142E0,-1.992912292E-1,1.501426421E0
4.199040084E0,-5.011969805E-1,-1.206309080E0,-8.755569458E-1,1.572571135E0
4.217974667E0,-4.883325696E-1,-1.057395697E0,-1.087011337E0,1.593156617E0
4.236927428E0,-6.029666066E-1,-9.977536201E-1,-1.069211006E0,1.581863835E0
4.255861907E0,-8.157050610E-1,-9.806025028E-1,-9.099912643E-1,1.566856763E0
4.274778105E0,-8.866204619E-1,-9.316638708E-1,-6.811704636E-1,1.455364769E0
4.293712688E0,-8.247807026E-1,-7.747646570E-1,-5.241403580E-1,1.247095263E0
4.312650449E0,-6.751564145E-1,-7.017501593E-1,-5.221996307E-1,1.104980509E0
4.331599459E0,-7.424888611E-1,-6.658904552E-1,-5.179986954E-1,1.123842718E0
4.350564824E0,-8.631386161E-1,-5.940455198E-1,-2.973022461E-1,1.089168020E0
4.369450657E0,-8.035923243E-1,-5.985029936E-1,-8.025455475E-2,1.005190156E0
4.388169615E0,-8.092526197E-1,-5.938577652E-1,1.169729233E-1,1.010563958E0
4.406780657E0,-9.438075423E-1,-5.196197033E-1,3.060188293E-1,1.120011088E0
4.425343938E0,-8.592207432E-1,-5.935800076E-1,6.637334824E-1,1.237392277E0
4.443907272E0,-7.323744297E-1,-7.392272949E-1,1.024929047E0,1.460585105E0
4.462422845E0,-5.915853977E-1,-8.145501614E-1,1.242352486E0,1.599032503E0
4.480986178E0,-5.854758024E-1,-8.818736076E-1,1.227675438E0,1.621008931E0
4.499597220E0,-7.255724072E-1,-9.685509205E-1,1.117429733E0,1.647178015E0
4.518160553E0,-8.078523278E-1,-9.175413847E-1,8.891029358E-1,1.511625485E0
4.536676126E0,-6.546881795E-1,-7.145181894E-1,5.165233612E-1,1.098157201E0
4.555239407E0,-3.472746313E-1,-6.658718586E-1,1.418123245E-1,7.642615632E-1
4.573806074E0,-7.827840745E-2,-7.212052345E-1,1.565551758E-1,7.421415111E-1
4.592383990E0,1.868465543E-2,-8.140245676E-1,6.381254196E-1,1.034499475E0
4.610947324E0,-3.181874752E-2,-8.946681023E-1,1.162016869E0,1.466876494E0
4.629492688E0,-7.182520628E-2,-9.543998241E-1,1.520077705E0,1.796294551E0
4.648055970E0,-3.608661890E-2,-9.693990350E-1,1.340983391E0,1.655074979E0
4.666667011E0,-9.726144373E-2,-7.645298243E-1,6.425447464E-1,1.003408886E0
4.685231438E0,-8.408601582E-2,-6.328812838E-1,-1.237707138E-1,6.503294296E-1
4.703793626E0,1.091586351E-1,-6.169426441E-1,-5.928583145E-1,8.625629338E-1
4.722309199E0,3.027133644E-1,-7.095445395E-1,-8.553314209E-1,1.151816250E0
4.740872532E0,4.085844159E-1,-6.934330463E-1,-8.646450043E-1,1.181271179E0
4.759483574E0,4.113292694E-1,-7.088346481E-1,-7.883358002E-1,1.137150676E0
4.778046907E0,4.567734003E-1,-6.972038746E-1,-5.610322952E-1,1.004734999E0
4.796562480E0,5.317661762E-1,-6.958328485E-1,-3.518638611E-1,9.438044268E-1
4.815125761E0,2.887006104E-1,-5.729159117E-1,-2.145109177E-1,6.764581422E-1
4.833692376E0,-1.781025082E-1,-5.379667282E-1,-1.599807739E-1,5.888315142E-1
4.852270345E0,-4.536219835E-1,-5.442128181E-1,-3.970441818E-1,8.121481255E-1
4.870833678E0,-4.807889462E-1,-4.700767994E-1,-8.547239304E-1,1.087512393E0
4.889379042E0,-5.393331051E-1,-3.773503304E-1,-1.282897949E0,1.441908672E0
4.907942324E0,-5.192857981E-1,-1.848963499E-1,-1.271330833E0,1.385686288E0
4.926553626E0,-3.467205167E-1,-6.216895580E-2,-1.073908806E0,1.130203618E0
4.945116699E0,-1.542328149E-1,-7.423198223E-2,-7.703676224E-1,7.891542447E-1
4.963679980E0,-1.312442869E-1,-1.772315502E-1,-5.214405060E-1,5.661592413E-1
4.982195553E0,-4.524950683E-2,-3.207833767E-1,-3.003091812E-1,4.417409840E-1
5.000758886E0,-2.911379933E-2,-3.671860695E-1,-1.468477249E-1,3.965318111E-1
5.019369928E0,-7.206611335E-2,-4.098101854E-1,-8.099651337E-2,4.239084193E-1
5.037933261E0,-1.555799693E-1,-3.733059168E-1,1.218538284E-1,4.223870143E-1
5.056448834E0,-3.109642863E-1,-3.018840551E-1,2.446889877E-1,4.977001817E-1
5.075012115E0,-3.446097076E-1,-2.560033798E-1,2.582664490E-1,5.009941514E-1
5.093623157E0,-2.509133220E-1,-2.323948145E-1,2.737913132E-1,4.380942000E-1
5.112187584E0,-9.178696573E-2,-2.402590513E-1,3.201551437E-1,4.106684489E-1
5.130750917E0,-1.140240878E-1,-2.876291275E-1,4.334936142E-1,5.325868203E-1
5.149265345E0,-1.478507966E-1,-3.504853249E-1,6.042308807E-1,7.139991444E-1
5.167828678E0,-1.084131747E-1,-4.558717012E-1,9.084692001E-1,1.022197981E0
5.186409928E0,-2.327811271E-1,-3.925637007E-1,1.117740631E0,1.207326563E0
5.204973261E0,-4.695871472E-1,-2.850862741E-1,1.106198311E0,1.235095533E0
5.223536595E0,-6.007457972E-1,-2.609343529E-1,1.037744522E0,1.227149519E0
5.242081907E0,-5.150276423E-1,-3.800042868E-1,9.162683487E-1,1.117678137E0
5.260645240E0,-6.486689448E-1,-5.530465841E-1,1.048616409E0,1.351380146E0
5.279256282E0,-9.790057540E-1,-6.504688263E-1,1.281374931E0,1.738816746E0
5.297819563E0,-1.116301179E0,-8.166444302E-1,1.433527946E0,1.991993680E0
5.316335136E0,-9.962416291E-1,-9.030026793E-1,1.273689270E0,1.852078718E0
5.334898470E0,-9.537159204E-1,-7.566329837E-1,7.769975662E-1,1.444227388E0
5.353464928E0,-9.347763062E-1,-7.117328644E-1,-1.965141296E-2,1.175055995E0
5.372072845E0,-1.114359260E0,-7.302474976E-1,-8.585872650E-1,1.585001596E0
5.390636074E0,-1.334226847E0,-8.419941068E-1,-1.395783424E0,2.106496314E0
5.409151699E0,-1.522645116E0,-9.523884058E-1,-1.425911903E0,2.293189172E0
5.427714980E0,-1.555803061E0,-1.148938179E0,-1.084253311E0,2.217247696E0
5.446326074E0,-1.410644054E0,-1.304433703E0,-5.326995850E-1,1.993798581E0
5.464889355E0,-1.104158282E0,-1.438612461E0,-8.719444275E-3,1.813517950E0
5.483453782E0,-9.250865579E-1,-1.464170218E0,3.499498367E-1,1.766930800E0
5.501968209E0,-9.924666882E-1,-1.316580176E0,3.231267929E-1,1.680114404E0
5.520531542E0,-9.962656498E-1,-1.125508666E0,-6.027126312E-2,1.504309685E0
5.539112792E0,-8.702294827E-1,-8.681296110E-1,-5.063104630E-1,1.329397856E0
5.557676126E0,-7.557290792E-1,-7.843893170E-1,-1.012386322E0,1.487050472E0
5.576221490E0,-9.587695599E-1,-6.374175549E-1,-1.214358330E0,1.673381714E0
5.594784772E0,-1.098517537E0,-6.355357170E-1,-9.848213196E-1,1.606399533E0
5.613351178E0,-1.299732924E0,-7.096436024E-1,-5.558805466E-1,1.581740464E0
5.631929355E0,-1.394845605E0,-7.021777034E-1,-2.018947601E-1,1.574614011E0
5.650492636E0,-1.278757453E0,-5.641648769E-1,3.941917419E-2,1.398233351E0
5.669038001E0,-1.018945456E0,-4.910845757E-1,-4.844284058E-2,1.132148670E0
5.687601334E0,-1.060738921E0,-3.850628138E-1,-1.046285629E-1,1.133308239E0
5.706212376E0,-1.166311145E0,-4.058039188E-1,-2.212619781E-2,1.235090311E0
5.724775657E0,-1.280790806E0,-4.564493895E-1,2.145061493E-1,1.376511541E0
5.743338990E0,-1.350634813E0,-4.925297499E-1,4.378032684E-1,1.502821232E0
5.761854563E0,-1.214450359E0,-6.153460741E-1,6.045980453E-1,1.489657431E0
5.780417845E0,-1.071636558E0,-6.468043327E-1,8.459234238E-1,1.510743921E0
5.799028938E0,-9.862115383E-1,-6.753619313E-1,9.500293732E-1,1.526853872E0
5.817592220E0,-1.235569358E0,-5.032832623E-1,7.749853134E-1,1.542895951E0
5.836107792E0,-1.179153681E0,-4.378842115E-1,4.067821503E-1,1.321974925E0
5.854671074E0,-7.441629767E-1,-4.391011000E-1,6.896495819E-2,8.668012906E-1
5.873252636E0,-3.718985319E-1,-4.757809639E-1,2.446336746E-1,6.515532813E-1
5.891815657E0,-4.703846574E-1,-5.710564256E-1,1.159661293E0,1.375565877E0
5.910366022E0,-6.067079306E-1,-7.496089339E-1,2.140805244E0,2.347989600E0
5.928924303E0,-6.028606296E-1,-7.711442113E-1,2.763344765E0,2.931582955E0
5.947487636E0,-3.111429214E-1,-6.930917501E-1,2.368325233E0,2.487197319E0
5.966098678E0,-1.558616459E-1,-5.805311203E-1,1.090139389E0,1.244874741E0
5.984661959E0,-1.803936362E-1,-4.383940697E-1,-1.122064590E-1,4.871565598E-1
6.003177532E0,-1.288239062E-1,-4.087554216E-1,-8.281421661E-1,9.324677157E-1
6.021740865E0,-5.134534836E-2,-3.685395718E-1,-9.059314728E-1,9.793720407E-1
6.040304147E0,1.327421367E-1,-4.426920414E-1,-5.818004608E-1,7.430265773E-1
6.058915188E0,1.720116138E-1,-5.310561061E-1,-2.930860519E-1,6.304823685E-1
6.077478470E0,2.864864767E-1,-5.565706491E-1,-1.440563202E-1,6.423376154E-1
6.095994095E0,4.258173406E-1,-5.057669878E-1,-6.067466736E-2,6.639292649E-1
6.114557376E0,2.807952166E-1,-3.914642334E-1,-1.916427612E-1,5.184757927E-1
6.133123834E0,9.946227074E-2,-3.720203638E-1,-5.594129562E-1,6.791426581E-1
6.151702011E0,-1.344230771E-1,-3.421742916E-1,-1.062738419E0,1.124529126E0
6.170265292E0,-2.528160512E-1,-3.641047478E-1,-1.541681290E0,1.604141335E0
6.188810605E0,-3.863690495E-1,-3.267673254E-1,-1.850480080E0,1.918419780E0
6.207373938E0,-4.888188243E-1,-2.942398787E-1,-1.835184097E0,1.921827677E0
6.225984980E0,-4.548748136E-1,-2.735037804E-1,-1.446236610E0,1.540556960E0
6.244548261E0,-3.496776819E-1,-2.610268593E-1,-8.492221832E-1,9.547710820E-1
6.263111542E0,-3.303226531E-1,-2.481949329E-1,-4.225950241E-1,5.910163570E-1
6.281627115E0,-2.089991421E-1,-2.929965258E-1,-1.346721649E-1,3.842709949E-1
6.300190449E0,-1.207284331E-1,-2.239503860E-1,4.037857056E-2,2.576034917E-1
6.318802636E0,-1.310701370E-1,-1.718508005E-1,1.147651672E-2,2.164342600E-1
6.337364824E0,-3.135900497E-1,-1.040804386E-1,-2.225103378E-1,3.983494790E-1
6.355880345E0,-4.817977548E-1,-7.164359093E-3,-3.677730560E-1,6.061661697E-1
6.374443678E0,-4.190256000E-1,1.082003117E-1,-1.640539169E-1,4.628211842E-1
6.393010188E0,-3.692470491E-1,1.279405355E-1,5.313682556E-2,3.943801290E-1
6.411588261E0,-3.066694438E-1,7.488584518E-2,2.737436295E-1,4.178392182E-1
6.430151542E0,-2.463085651E-1,1.990425587E-2,4.438295364E-1,5.079849861E-1
6.448696907E0,-2.164746523E-1,-2.649128437E-2,5.424175262E-1,5.846193941E-1
6.467260188E0,-1.186691225E-1,-9.914278984E-2,6.560602188E-1,6.740375836E-1
6.485871282E0,-7.178899646E-2,-1.237530708E-1,8.695363998E-1,8.812275717E-1
6.504434511E0,-1.509211510E-1,-4.722285271E-2,9.723558426E-1,9.851309945E-1
6.522998938E0,-2.879351974E-1,-2.629601955E-2,9.953994751E-1,1.036541496E0
6.541513417E0,-4.253776670E-1,-2.002644539E-2,1.108492851E0,1.187477840E0
6.560076699E0,-3.200829029E-1,-2.566747665E-1,1.310888290E0,1.373594959E0
6.578640032E0,-4.035097063E-1,-3.764624596E-1,1.762888908E0,1.847246970E0
6.597203313E0,-5.128627419E-1,-4.828993678E-1,2.011465073E0,2.131246520E0
6.615814355E0,-5.853512287E-1,-6.765573025E-1,1.649170876E0,1.876201061E0
6.634329928E0,-8.102214932E-1,-6.019367576E-1,6.990909576E-1,1.227808982E0
6.652896178E0,-8.856878281E-1,-5.929091573E-1,-2.888584137E-1,1.104275048E0
6.671474511E0,-1.166090250E0,-5.422807932E-1,-1.017846107E0,1.640074885E0
6.690037792E0,-1.412417412E0,-6.607704163E-1,-1.275665283E0,2.014661858E0
6.708583157E0,-1.431423187E0,-8.192808032E-1,-1.331036568E0,2.119398905E0
6.727146438E0,-1.463846087E0,-9.764015675E-1,-1.182947159E0,2.120275777E0
6.745758574E0,-1.496643782E0,-1.082027912E0,-8.009748459E-1,2.013029487E0
6.764320813E0,-1.305765629E0,-1.187935352E0,-2.726850510E-1,1.786217068E0
6.782885188E0,-1.168547153E0,-1.238205791E0,5.680274963E-2,1.703491292E0
6.801399667E0,-1.328333378E0,-1.181922913E0,3.056716919E-2,1.778298537E0
6.819962949E0,-1.488996506E0,-1.083278656E0,-2.113895416E-1,1.853453204E0
6.838573990E0,-1.573552489E0,-8.871275783E-1,-5.665817261E-1,1.893166033E0
6.857138417E0,-1.550536036E0,-6.736937761E-1,-8.545513153E-1,1.894276446E0
6.875672376E0,-1.466332793E0,-4.785509109E-1,-1.042307854E0,1.861598372E0
6.894216178E0,-1.369169354E0,-4.411976337E-1,-1.144298553E0,1.838123840E0
6.912782688E0,-1.313438416E0,-3.423400521E-1,-8.171997070E-1,1.584339782E0
6.931390553E0,-1.261082292E0,-2.488685846E-1,-3.255691528E-1,1.325993737E0
6.949953834E0,-1.135212779E0,-2.459713817E-1,-2.989006042E-2,1.161939495E0
6.968469407E0,-1.141473651E0,-1.156685352E-1,1.304664612E-1,1.154713299E0
6.987032688E0,-1.116811275E0,-5.222535133E-2,1.564674377E-1,1.128927354E0
7.005644928E0,-1.118309498E0,-6.394600868E-2,2.186670303E-1,1.141280200E0
7.024177324E0,-1.104445338E0,-1.955509186E-2,3.602790833E-1,1.161887656E0
7.042740605E0,-1.079865456E0,-3.021550179E-2,3.334455490E-1,1.130578751E0
7.061285917E0,-1.086223364E0,-4.559063911E-2,2.486619949E-1,1.115254451E0
7.079849199E0,-1.011769176E0,-1.093918681E-1,3.487739563E-1,1.075772614E0
7.098460292E0,-9.148703814E-1,-1.485772729E-1,6.317701340E-1,1.121693596E0
7.117023522E0,-8.679910302E-1,-2.500251532E-1,7.971954346E-1,1.204757887E0
7.135586855E0,-9.372315407E-1,-3.449544311E-1,5.958833694E-1,1.162958946E0
7.154102428E0,-9.028650522E-1,-1.997943521E-1,3.281297684E-1,9.811993837E-1
7.172669251E0,-6.646366715E-1,-4.607760906E-2,6.986904144E-2,6.698856127E-1
7.191276751E0,-1.700215340E-1,-2.187505364E-1,1.063976288E-1,2.967820322E-1
7.209840084E0,-4.756361246E-2,-3.803821206E-1,1.032443047E0,1.101313534E0
7.228355657E0,-3.406310678E-1,-5.817945004E-1,2.416938782E0,2.509204543E0
7.246918938E0,-6.190471649E-1,-9.043909311E-1,3.038871765E0,3.230461879E0
7.265529980E0,-5.510039330E-1,-9.765019417E-1,2.396577835E0,2.645892420E0
7.284093261E0,-1.460843682E-1,-7.094684839E-1,1.065701485E0,1.288567354E0
7.302643626E0,2.650896907E-1,-4.880587459E-1,-3.590393066E-1,6.613494592E-1
7.321172167E0,2.831370234E-1,-2.942892313E-1,-1.167624474E0,1.236980047E0
7.339735449E0,1.204503775E-1,-3.168218136E-1,-1.161234856E0,1.209690351E0
7.358316699E0,-2.185106277E-2,-4.812076688E-1,-7.169017792E-1,8.637050714E-1
7.376880032E0,1.406578422E-1,-6.532715559E-1,-3.647346497E-1,7.613013326E-1
7.395443313E0,2.547127008E-1,-7.666900158E-1,-2.363672256E-1,8.417610146E-1
7.413988626E0,6.202489138E-2,-7.424395084E-1,-9.770774841E-2,7.514055596E-1
7.432629615E0,-1.962749362E-1,-6.890105009E-1,-1.261367798E-1,7.274405874E-1
7.451163001E0,-3.869573474E-1,-5.460585356E-1,-3.098754883E-1,7.375220208E-1
7.469726334E0,-3.741741776E-1,-3.654098511E-1,-5.712985992E-1,7.745403566E-1
7.488241855E0,-2.896267772E-1,-3.116800785E-1,-6.821346283E-1,8.039501182E-1
7.506805136E0,-3.959897161E-1,-2.647055984E-1,-5.561771393E-1,7.322635586E-1
7.525417272E0,-3.159205914E-1,-3.067189455E-1,-3.250389099E-1,5.472957377E-1
7.543980605E0,-2.580715418E-1,-1.842387319E-1,-1.205615997E-1,3.392343295E-1
7.562542792E0,-1.332723498E-1,-1.134853363E-1,-9.601879120E-2,1.996498161E-1
7.581058365E0,-3.020286560E-3,-4.190659523E-2,-1.846971512E-1,1.894157399E-1
7.599621647E0,-5.411666632E-2,3.976249695E-2,-4.252033234E-1,4.304736182E-1
7.618233834E0,-2.561345994E-1,1.131296158E-4,-6.210632324E-1,6.718068804E-1
7.636797167E0,-4.075223804E-1,3.505480289E-2,-5.929489136E-1,7.203414078E-1
7.655359303E0,-4.036806822E-1,1.400372982E-1,-4.710865021E-1,6.359960931E-1
7.673874876E0,-2.875981331E-1,1.982204914E-1,-3.648824692E-1,5.051170812E-1
7.692441282E0,-2.555261850E-1,2.750762701E-1,-3.220777512E-1,4.946662141E-1
7.711049199E0,-2.458801866E-1,2.729252577E-1,-3.017559052E-1,4.753965594E-1
7.729612480E0,-3.610513210E-1,3.171520233E-1,-2.135019302E-1,5.258579053E-1
7.748128053E0,-3.520246744E-1,3.001464605E-1,-3.564357758E-2,4.639824714E-1
7.766691334E0,-3.274405301E-1,3.071419001E-1,1.312685013E-1,4.677444462E-1
7.785272584E0,-2.775610983E-1,3.368475437E-1,3.261480331E-1,5.448660115E-1
7.803835917E0,-1.748650074E-1,3.283156157E-1,5.040836334E-1,6.264736417E-1
7.822399251E0,-2.449800670E-1,3.532447815E-1,5.996284485E-1,7.378017248E-1
7.840944563E0,-3.669013381E-1,4.257775545E-1,6.989555359E-1,8.969068842E-1
7.859507845E0,-3.911629915E-1,4.001697302E-1,6.377544403E-1,8.484544920E-1
7.878089147E0,-5.433530211E-1,4.756594896E-1,6.613550186E-1,9.792215869E-1
7.896652428E0,-6.288866401E-1,5.512425900E-1,9.969520569E-1,1.301261005E0
7.915215709E0,-5.696422458E-1,5.084366798E-1,1.358670235E0,1.558520116E0
7.933761022E0,-5.426933169E-1,4.692400694E-1,1.620522499E0,1.772228949E0
7.952348105E0,-4.400374293E-1,3.208025098E-1,1.850848198E0,1.929296826E0
7.970935397E0,-3.781838417E-1,1.496697068E-1,2.047546387E0,2.087551256E0
7.989498678E0,-3.243416548E-1,-1.040757298E-1,2.024316788E0,2.052775615E0
8.008014251E0,-4.629196525E-1,-2.464252412E-1,2.059830666E0,2.125540490E0
8.026577532E0,-5.262665749E-1,-4.674081206E-1,2.217109680E0,2.326156098E0
8.045188626E0,-4.898313284E-1,-7.991302013E-1,2.449716568E0,2.622909658E0
8.063751907E0,-3.744937181E-1,-1.011755466E0,2.693866730E0,2.901863647E0
8.082316334E0,-1.566783190E-1,-1.236334562E0,2.182674408E0,2.513391895E0
8.100830761E0,-3.559942842E-1,-1.175972462E0,1.101694107E0,1.650264544E0
8.119394042E0,-6.893425584E-1,-1.040071368E0,-2.901058197E-1,1.281055424E0
8.137993261E0,-8.147493601E-1,-1.010336399E0,-1.403548241E0,1.911686120E0
8.156569459E0,-9.319729209E-1,-9.791730046E-1,-1.926032066E0,2.353073059E0
8.175132845E0,-8.504439592E-1,-1.029268026E0,-1.948102474E0,2.361726243E0
8.193647220E0,-6.686426997E-1,-1.173652887E0,-1.528911591E0,2.040126175E0
8.212213938E0,-7.076591253E-1,-1.170359850E0,-1.197072983E0,1.817555320E0
8.230791803E0,-8.548070192E-1,-1.210255980E0,-1.073506355E0,1.829707756E0
8.249355084E0,-8.849338293E-1,-1.083334327E0,-8.207883835E-1,1.621855331E0
8.267900397E0,-8.580259681E-1,-9.653797746E-1,-5.560455322E-1,1.406183951E0
8.286463730E0,-8.856570125E-1,-8.813053370E-1,-3.974895477E-1,1.311138963E0
8.305075032E0,-9.835746288E-1,-8.346815705E-1,-3.903264999E-1,1.347763759E0
8.323638053E0,-1.156448126E0,-8.344769478E-1,-5.822620392E-1,1.540374346E0
8.342201386E0,-1.387829185E0,-7.194781303E-1,-7.886228561E-1,1.750898237E0
8.360716907E0,-1.400681019E0,-5.424358249E-1,-8.827123642E-1,1.742218430E0
8.379280188E0,-1.294907689E0,-4.062519670E-1,-8.837823868E-1,1.619536320E0
8.397891282E0,-1.256583691E0,-2.951242924E-1,-7.810192108E-1,1.508672240E0
8.416454563E0,-1.243754745E0,-2.558942735E-1,-7.509183884E-1,1.475224108E0
8.435017845E0,-1.300788522E0,-1.274062395E-1,-6.880588531E-1,1.477060633E0
8.453533417E0,-1.087081790E0,-7.492673397E-2,-7.113752365E-1,1.301313014E0
8.472099772E0,-8.702088594E-1,-8.779108524E-3,-7.764129639E-1,1.166257957E0
8.490677949E0,-7.107292414E-1,8.264923096E-2,-7.951641083E-1,1.069697578E0
8.509241282E0,-5.750169754E-1,1.190416813E-1,-8.265485764E-1,1.013902359E0
8.527786595E0,-5.107437372E-1,1.370517015E-1,-6.974296570E-1,8.752430865E-1
8.546349876E0,-5.507957935E-1,2.508705854E-1,-4.146690369E-1,7.336637288E-1
8.564962063E0,-6.007580757E-1,3.095611334E-1,-3.249988556E-1,7.499084057E-1
8.583525292E0,-6.516585350E-1,3.765258193E-1,-6.179046631E-1,9.737744664E-1
8.602087532E0,-7.087526917E-1,4.027187228E-1,-9.549818039E-1,1.255588704E0
8.620603053E0,-8.964310288E-1,3.710733056E-1,-7.936897278E-1,1.253486088E0
8.639166334E0,-9.117090106E-1,2.141718864E-1,-7.993793488E-2,9.399324393E-1
8.657777376E0,-9.202393293E-1,6.408601999E-2,1.038276672E0,1.388872165E0
8.676340709E0,-8.364342451E-1,-2.250117064E-2,2.507234573E0,2.643171155E0
8.694903990E0,-5.335897803E-1,-1.763651371E-1,3.123041153E0,3.173201657E0
8.713419511E0,-1.852261126E-1,-3.763870597E-1,2.578226089E0,2.612130491E0
8.732074251E0,-6.758940220E-2,-3.461228609E-1,1.553571701E0,1.593095852E0
8.750593886E0,4.569734931E-1,-3.166270852E-1,1.679491997E0,1.769115839E0
8.769157220E0,8.237799406E-1,-2.961673141E-1,3.478999138E0,3.587445257E0
8.787672740E0,8.777608871E-1,-7.688778043E-1,5.215624809E0,5.344565408E0
8.806223105E0,4.857373238E-2,-1.099774361E0,5.961159706E0,6.061954148E0
8.824848157E0,-5.433529615E-1,-1.124246359E0,5.171626091E0,5.320232959E0
8.843677011E0,-2.846490145E-1,-7.938275337E-1,2.944594383E0,3.062976215E0
8.862625865E0,1.577860713E-1,-2.086054385E-1,4.515295029E-1,5.218156429E-1
8.881510553E0,6.306708455E-1,2.736221999E-2,-1.437448502E0,1.569953057E0
8.900431907E0,5.263337493E-1,3.555124402E-1,-2.073356152E0,2.168460754E0
8.919428209E0,2.415431440E-1,3.845192194E-1,-1.731825829E0,1.790368348E0
8.938362688E0,3.388545811E-1,-1.531168818E-2,-1.547865868E0,1.584596358E0
8.957248470E0,5.167871714E-1,-2.542957664E-1,-1.643861771E0,1.741842943E0
8.976183001E0,4.768164158E-1,-3.893427849E-1,-1.914118767E0,2.010669628E0
8.995166490E0,4.119624197E-1,-3.073824942E-1,-2.022911072E0,2.087190992E0
9.014070292E0,3.435698748E-1,-1.434174478E-1,-2.074541569E0,2.107683929E0
9.033004772E0,2.372347713E-1,-1.221292913E-1,-2.462809086E0,2.477221123E0
9.051920917E0,1.326122582E-1,-6.726506352E-2,-2.600443840E0,2.604691683E0
9.070762949E0,-2.901634574E-2,3.680229187E-3,-2.513442993E0,2.513613171E0
9.089375136E0,-1.628542989E-1,3.180813789E-2,-2.423243046E0,2.428917483E0
9.107938470E0,-8.458387852E-2,-1.180428267E-2,-2.382731915E0,2.384261972E0
9.126509980E0,-3.934189677E-2,5.057936907E-2,-2.164928436E0,2.165876541E0
9.145016126E0,1.005774736E-2,1.394279003E-1,-1.768946648E0,1.774461479E0
9.163579407E0,4.747211933E-3,2.020535469E-1,-1.471473694E0,1.485288862E0
9.182190449E0,-1.600243300E-1,3.333572745E-1,-1.173032761E0,1.229935249E0
9.200753782E0,-4.040055275E-1,3.391383290E-1,-1.065279961E0,1.188720601E0
9.219269303E0,-5.899730325E-1,3.216762543E-1,-9.697828293E-1,1.179840043E0
9.237832584E0,-5.250634551E-1,4.858651757E-1,-6.293478012E-1,9.528038916E-1
9.256487688E0,-3.575597405E-1,6.787680387E-1,-2.889680862E-1,8.198033748E-1
9.275006907E0,-2.827943563E-1,8.419351578E-1,-2.905740738E-1,9.344842162E-1
9.293570240E0,-1.157472730E-1,9.063303471E-1,-1.777667999E-1,9.308239169E-1
9.312085761E0,-7.561746240E-2,9.665129781E-1,-6.296157837E-3,9.694869669E-1
9.330649042E0,-1.076817214E-1,1.120784044E0,2.251005173E-1,1.148225792E0
9.349260345E0,3.744336963E-2,1.193423748E0,4.677286148E-1,1.282354204E0
9.367824511E0,1.426398754E-1,1.278317451E0,5.927515030E-1,1.416261270E0
9.386387845E0,1.469913125E-1,1.202441335E0,5.642786026E-1,1.336368943E0
9.404902220E0,-5.312350392E-2,1.091685057E0,4.687004089E-1,1.189234394E0
9.423465501E0,-7.813778520E-2,9.332138300E-1,5.292615891E-1,1.075691125E0
9.442046803E0,5.003046989E-2,7.499966025E-1,7.219009399E-1,1.042179888E0
9.460610084E0,-4.555743933E-2,6.697553396E-1,9.586029053E-1,1.170285104E0
9.479155397E0,-1.697272062E-3,4.765604138E-1,1.189629555E0,1.281534700E0
9.497718678E0,7.699212432E-2,3.064070940E-1,1.280560493E0,1.318957267E0
9.516329772E0,5.635261536E-3,3.250713348E-1,1.274261475E0,1.315083813E0
9.534893053E0,-7.459758222E-2,3.642197847E-1,1.219191551E0,1.274617154E0
9.553457376E0,-6.566345692E-3,2.863471508E-1,9.908113480E-1,1.031380112E0
9.571971855E0,-1.941421628E-2,1.782358885E-1,8.257589340E-1,8.449986751E-1
9.590535136E0,-1.084114164E-1,-1.015222073E-2,6.880083084E-1,6.965712708E-1
9.609147324E0,-2.112824768E-1,-2.573232055E-1,7.022056580E-1,7.771411089E-1
9.627709459E0,-1.961347312E-1,-5.812890530E-1,7.972564697E-1,1.005973993E0
9.646272792E0,-3.149883747E-1,-6.870561838E-1,1.311511040E0,1.513712352E0
9.664788313E0,-3.583381176E-1,-7.709405422E-1,1.869755745E0,2.053957661E0
9.683351595E0,-5.459985137E-1,-9.198759198E-1,1.875775337E0,2.159356200E0
9.701962636E0,-6.648907661E-1,-8.525457382E-1,1.144776344E0,1.574619587E0
9.720525970E0,-7.102303505E-1,-6.829573512E-1,5.656814575E-2,9.869436911E-1
9.739028522E0,-7.802472115E-1,-6.113139987E-1,-8.621292114E-1,1.313680819E0
9.757604772E0,-9.063199162E-1,-6.208587885E-1,-1.132325172E0,1.577669713E0
9.776168053E0,-9.613093734E-1,-6.268599033E-1,-7.268362045E-1,1.358440252E0
9.794731334E0,-7.935842276E-1,-6.980924010E-1,-3.413524628E-1,1.110689169E0
9.813294615E0,-8.847498298E-1,-6.620326042E-1,-2.908105850E-1,1.142646151E0
9.831857949E0,-9.572041035E-1,-6.351528168E-1,-4.071226120E-1,1.218772997E0
9.850424147E0,-8.485684991E-1,-5.085927248E-1,-5.046958923E-1,1.110609293E0
9.869002480E0,-4.816717207E-1,-3.412717581E-1,-8.241853714E-1,1.013782810E0
9.887547792E0,-2.251527458E-1,-1.521986127E-1,-1.319125175E0,1.346829390E0
9.906111074E0,-1.812529862E-1,-1.091825366E-1,-1.606670380E0,1.620544100E0
9.924722167E0,-4.164809585E-1,-9.174948931E-2,-1.360036850E0,1.425333151E0
9.943285397E0,-6.306927204E-1,-1.175597906E-1,-7.134866714E-1,9.595086463E-1
9.961800970E0,-6.380557418E-1,-1.960313320E-1,-2.791728973E-1,7.235198127E-1
9.980364251E0,-7.000166178E-1,-2.468740344E-1,-2.051057816E-1,7.700898880E-1
9.998927532E0,-6.417877674E-1,-2.390664816E-1,-3.678970337E-1,7.774268766E-1
1.001749081E1,-6.004756689E-1,-1.011251211E-1,-5.830507278E-1,8.430572165E-1
1.003610186E1,-3.657297492E-1,-7.228517532E-2,-7.250785828E-1,8.153050639E-1
1.005461743E1,-2.751190066E-1,7.549387217E-2,-5.607013702E-1,6.291071603E-1
1.007318071E1,-2.681730688E-1,1.587750912E-1,-4.515695572E-1,5.486723880E-1
1.009174399E1,-2.857743502E-1,1.751848459E-1,-5.797719955E-1,6.696956594E-1
1.011035290E1,-3.290546834E-1,2.573875189E-1,-8.037090302E-1,9.057999364E-1
1.012888649E1,-3.438062668E-1,3.701828122E-1,-9.753246307E-1,1.098406208E0
1.014743383E1,-3.931334019E-1,4.352600574E-1,-8.322668076E-1,1.018171512E0
1.016599712E1,-3.450309336E-1,4.353488088E-1,-6.998176575E-1,8.934873721E-1
1.018460717E1,-9.406231344E-2,4.254330993E-1,-7.147293091E-1,8.370657238E-1
1.020316936E1,2.833601832E-2,4.468770027E-1,-8.124361038E-1,9.276607183E-1
1.022173264E1,4.392331094E-2,5.011989474E-1,-8.115310669E-1,9.548362764E-1
1.024025029E1,-5.234797299E-2,5.461831093E-1,-7.035732269E-1,8.922284376E-1
1.025881357E1,-2.732776999E-1,6.021539569E-1,-6.711158752E-1,9.421606058E-1
1.027742357E1,-4.269838631E-1,5.399304032E-1,-6.074733734E-1,9.180762273E-1
1.029594243E1,-6.517683864E-1,5.845614076E-1,-3.824205399E-1,9.553844975E-1
1.031450342E1,-6.725841761E-1,5.335533619E-1,-3.129520416E-1,9.137765833E-1
1.033306670E1,-6.273931265E-1,5.246782303E-1,-4.666614532E-1,9.416380900E-1
1.035167566E1,-5.090073347E-1,6.325888634E-1,-7.971830368E-1,1.137874304E0
1.037023894E1,-6.064029336E-1,6.611670256E-1,-1.168518066E0,1.473194089E0
1.038880222E1,-9.026846290E-1,6.364642978E-1,-1.281925201E0,1.692116593E0
1.040731988E1,-9.959967136E-1,5.473138690E-1,-1.084361076E0,1.570796253E0
1.042588316E1,-9.010069370E-1,4.746225774E-1,-9.328365326E-1,1.381037323E0
1.044446232E1,-6.972408295E-1,4.253314435E-1,-6.738567352E-1,1.058836395E0
1.046302555E1,-4.264209867E-1,4.139258564E-1,-9.593677521E-2,6.019745321E-1
1.048158883E1,-2.611396313E-1,2.936197519E-1,2.823314667E-1,4.838569239E-1
1.050013628E1,-3.786821663E-1,2.420112491E-1,2.282466888E-1,5.040497780E-1
1.051869962E1,-8.792096376E-1,4.512526393E-1,3.097734451E-1,1.035663130E0
1.053730847E1,-1.037151694E0,4.160417020E-1,6.445178986E-1,1.290030099E0
1.055587175E1,-1.043150902E0,2.887957692E-1,9.380826950E-1,1.432328853E0
1.057438946E1,-9.921764731E-1,2.650833726E-1,9.677944183E-1,1.411137621E0
1.059295274E1,-7.308885455E-1,2.148380280E-1,1.054586411E0,1.300963467E0
1.061156191E1,-4.480530024E-1,2.405992746E-1,1.451383591E0,1.537905664E0
1.063012602E1,-3.667922020E-1,2.469589412E-1,1.794294357E0,1.847976590E0
1.064868821E1,-5.119831562E-1,2.846110761E-1,1.684053421E0,1.783021632E0
1.066720587E1,-5.632905960E-1,3.102045953E-1,1.088697433E0,1.264430816E0
1.068576915E1,-4.354271889E-1,4.549867213E-1,3.981962204E-1,7.450972979E-1
1.070437810E1,-2.321517169E-1,6.836482286E-1,2.206325531E-2,7.223268702E-1
1.072294139E1,2.193585038E-1,8.933804631E-1,-1.866455078E-1,9.386604022E-1
1.074150467E1,4.365563691E-1,1.127414823E0,-3.452796936E-1,1.257324028E0
1.076002232E1,3.966639638E-1,1.183583856E0,-6.918268204E-1,1.427178122E0
1.077858560E1,1.393554211E-1,1.121498227E0,-9.384307861E-1,1.468955597E0
1.079719451E1,-1.781068444E-1,9.858334064E-1,-6.820917130E-1,1.211956541E0
1.081575784E1,-4.259647727E-1,7.685046792E-1,-2.041721344E-1,9.020707788E-1
1.083427545E1,-3.148875833E-1,5.333421826E-1,2.196693420E-1,6.571626083E-1
1.085283873E1,-2.965922058E-1,5.085719228E-1,5.923833847E-1,8.351828612E-1
1.087141790E1,-2.129539847E-2,5.560376048E-1,7.220144272E-1,9.115569895E-1
1.088998118E1,-4.141142964E-2,6.370953918E-1,6.413431168E-1,9.049455443E-1
1.090853087E1,-2.080193758E-1,6.739009619E-1,4.865360260E-1,8.568149577E-1
1.092709186E1,-5.161163807E-1,8.171126246E-1,5.247154236E-1,1.099716070E0
1.094565514E1,-5.129336119E-1,9.179841280E-1,5.042686462E-1,1.166225800E0
1.096426514E1,-2.323354781E-2,6.019033194E-1,2.548465729E-1,6.540444781E-1
1.098282738E1,4.509910941E-1,2.740043402E-1,5.524196625E-1,7.639625834E-1
1.100139066E1,9.611638188E-1,2.876899838E-1,1.791412354E0,2.053231510E0
1.101989534E1,1.120909333E0,2.005856037E-1,2.863709450E0,3.081802091E0
1.103847160E1,1.021632552E0,-1.419785619E-1,2.456731796E0,2.664474076E0
1.105708050E1,7.719947100E-1,1.595561206E-1,1.144659996E0,1.389849091E0
1.107563081E1,8.725735545E-1,6.929807663E-1,-4.843997955E-1,1.215010334E0
1.109416144E1,1.118692040E0,1.029332757E0,-1.822687626E0,2.373433797E0
1.111272472E1,9.833327532E-1,1.222700238E0,-1.930894375E0,2.488029795E0
1.113133472E1,6.087312698E-1,1.139878631E0,-9.708490372E-1,1.616299757E0
1.114989696E1,8.407541513E-1,6.678552628E-1,2.381305695E-1,1.099820150E0
1.116846024E1,1.170978308E0,4.842624068E-1,1.437354088E0,1.916164672E0
1.118696493E1,1.786769867E0,6.165703535E-1,2.086167336E0,2.815102078E0
1.120554113E1,2.683770180E0,8.419755101E-1,2.940558434E0,4.069204964E0
1.122415008E1,3.115226030E0,1.046354532E0,3.615588188E0,4.885894900E0
1.124270040E1,2.839402676E0,1.395352602E0,4.597043991E0,5.580504448E0
1.126127774E1,2.657326221E0,1.509593129E0,6.084501266E0,6.808921333E0
1.127979425E1,2.111251831E0,1.375152707E0,7.522875786E0,7.933605066E0
1.129835753E1,1.351016760E0,1.399979234E0,7.686120033E0,7.928532607E0
1.131693665E1,1.246767879E0,1.095322371E0,6.079536438E0,6.301977828E0
1.133549993E1,1.487144709E0,1.168755531E0,2.632525444E0,3.241570467E0
1.135403446E1,2.186570644E0,1.701732516E0,-3.473749161E-1,2.792427989E0
1.137261066E1,2.873103619E0,2.169200897E0,-2.103789330E0,4.169662634E0
1.139121956E1,2.427013636E0,1.825844169E0,-3.130972385E0,4.362005295E0
1.140976998E1,6.221846938E-1,1.381985426E0,-2.399881840E0,2.838385167E0
1.142834613E1,6.769034266E-2,4.115060866E-1,-1.516672134E0,1.572963320E0
1.144686378E1,-1.440151691E0,-6.460544467E-2,-9.258117676E-1,1.713282868E0
1.146542706E1,-2.185751677E0,-3.517736197E-1,-7.972869873E-1,2.353066427E0
1.148403706E1,-1.395626426E0,-1.036337614E0,-1.873056889E0,2.555408163E0
1.150255587E1,-1.597086430E0,-1.018849611E0,-3.439992428E0,3.927122038E0
1.152115076E1,-2.018188715E0,-5.339861512E-1,-4.605143547E0,5.056241093E0
1.153968019E1,-1.165786505E0,-1.214650273E0,-4.443032742E0,4.751312808E0
1.155824347E1,-1.609043121E0,-1.653387547E0,-2.421392918E0,3.344525947E0
1.157684050E1,-3.039724350E0,-2.213073730E0,-3.941755295E-1,3.780607598E0
1.159541680E1,-3.270201206E0,-3.053937912E0,-1.649293900E-1,4.477494210E0
1.161393331E1,-2.437779427E0,-3.837687969E0,-1.545091629E0,4.801866889E0
1.163249660E1,-2.285552502E0,-3.861948490E0,-2.131911278E0,4.968243359E0
1.165110550E1,-2.612169266E0,-2.998281479E0,-1.520883560E0,4.257488333E0
1.166963899E1,-3.332220554E0,-2.503913879E0,5.938110352E-1,4.210212594E0
1.168820227E1,-4.138130665E0,-1.802789688E0,8.387184143E-1,4.591037425E0
1.170674972E1,-2.821801186E0,-9.578766823E-1,1.200389862E-2,2.979972108E0
1.172531300E1,-1.475122690E0,-1.972235441E-1,2.222099304E-1,1.504746268E0
1.174390894E1,-5.468142629E-1,-5.275598764E-1,6.080150604E-1,9.731431421E-1
1.176248633E1,-4.927397668E-1,-8.874842525E-1,-8.121700287E-1,1.300015743E0
1.178104962E1,-1.338922620E0,-6.053464413E-1,-1.714856625E0,2.258293900E0
1.179956613E1,-2.055861235E0,-4.679970741E-1,-1.815442085E0,2.782340138E0
1.181812941E1,-2.110972643E0,-4.522767067E-1,-1.257205009E0,2.498264228E0
1.183673941E1,-1.802065134E0,-4.268406630E-1,-3.485269547E-1,1.884436981E0
1.185530269E1,-1.277564168E0,-2.938368320E-1,-1.585083008E-1,1.320467784E0
1.187381925E1,-8.151749372E-1,-2.898882627E-1,-1.224211693E0,1.499079602E0
1.189238253E1,-8.457245231E-1,1.097779274E-1,-2.387424469E0,2.535171938E0
1.191099165E1,-6.126062274E-1,2.847064734E-1,-2.261376858E0,2.360120645E0
1.192952488E1,-3.224550188E-1,3.855558634E-1,-1.576540947E0,1.654724122E0
1.194808826E1,-3.945698142E-1,9.202730656E-2,-9.392776489E-1,1.022935416E0
1.196663560E1,-7.454845309E-1,-1.322029829E-1,-6.998176575E-1,1.031004155E0
1.198519889E1,-9.084116817E-1,-1.446818113E-1,-1.196613312E0,1.509313761E0
1.200376217E1,-8.284058571E-1,7.173883915E-2,-1.736964703E0,1.925733394E0
1.202232545E1,-8.278766870E-1,3.401094675E-1,-1.908697605E0,2.108122579E0
1.204093441E1,-8.564016819E-1,6.225070953E-1,-8.871002197E-1,1.381262366E0
1.205945201E1,-5.566595793E-1,3.541535139E-1,-8.213996887E-2,6.648620707E-1
1.207801529E1,-5.444825888E-1,7.603776455E-2,2.378482819E-1,5.990115494E-1
1.209658008E1,-6.861878037E-1,2.998518944E-2,-3.425960541E-1,7.675447022E-1
1.211518863E1,-2.031262219E-2,4.173954725E-1,-5.627365112E-1,7.009307842E-1
1.213370514E1,8.944283724E-1,6.646679640E-1,-2.478418350E-1,1.141582757E0
1.215226842E1,1.029690504E0,8.210479021E-1,-1.427135468E-1,1.324669524E0
1.217087732E1,9.276127219E-1,5.795212984E-1,2.576532364E-1,1.123697240E0
1.218944170E1,2.363919765E-1,3.499826193E-1,6.886882782E-1,8.078740897E-1
1.220800389E1,-2.559503317E-1,-1.235496998E-1,9.795351028E-1,1.019933389E0
1.222652149E1,-7.882403731E-1,-2.191776633E-1,1.006820679E0,1.297324020E0
1.224508477E1,-1.038425207E0,-3.067064285E-2,5.135011673E-1,1.158857648E0
1.226369482E1,-5.912201405E-1,1.449450254E-1,-1.812582016E-1,6.351415988E-1
1.228225800E1,-6.182809174E-2,4.274252653E-1,-5.619812012E-2,4.355149814E-1
1.230082024E1,2.350634187E-1,6.326717138E-1,5.001621246E-1,8.400538431E-1
1.231933790E1,-1.934425533E-2,6.528079510E-1,6.902437210E-1,9.502467129E-1
1.233790118E1,-5.049023628E-1,5.211862326E-1,5.911750793E-1,9.359751383E-1
1.235646660E1,-8.772724867E-1,3.876725435E-1,4.703216553E-1,1.068222578E0
1.237507342E1,-9.068347216E-1,3.182234764E-1,6.021575928E-1,1.134111617E0
1.239359102E1,-7.912005186E-1,1.859461069E-1,8.842658997E-1,1.201041380E0
1.241215425E1,-4.015613496E-1,-2.328771353E-2,8.237447739E-1,9.167056712E-1
1.243076316E1,-2.025745809E-1,-1.086797118E-1,5.405731201E-1,5.874240707E-1
1.244932644E1,-1.371074021E-1,-2.970398664E-1,1.665039062E-1,3.670894615E-1
1.246789092E1,-1.989631057E-1,-2.967625856E-1,3.329553604E-1,4.883785639E-1
1.248640738E1,-1.958221346E-1,-3.956743181E-1,9.769887924E-1,1.072106140E0
1.250497066E1,-4.130174816E-1,-5.766336918E-1,1.208484650E0,1.401258364E0
1.252354977E1,-5.976997614E-1,-7.084419727E-1,1.263806343E0,1.567271995E0
1.254211310E1,-5.914405584E-1,-4.773058593E-1,1.025150299E0,1.276148876E0
1.256067628E1,-3.719916940E-1,-2.610425949E-1,3.176956177E-1,5.544831487E-1
1.257922373E1,-1.399442554E-2,-2.597986162E-1,-2.391242981E-1,3.533717516E-1
1.259778701E1,2.675414383E-1,-2.889213562E-1,-5.497455597E-2,3.975879439E-1
1.261639592E1,2.804366052E-1,-4.409964383E-1,4.581727982E-1,6.950142884E-1
1.263495925E1,1.112784743E-1,-6.937994957E-1,5.212211609E-1,8.748783559E-1
1.265347686E1,-1.439304650E-1,-8.468563557E-1,2.786598206E-1,9.030686361E-1
1.267204014E1,-1.434237808E-1,-7.910506725E-1,-2.656650543E-1,8.467050658E-1
1.269065019E1,1.629885137E-1,-6.318179369E-1,-9.000587463E-1,1.111694611E0
1.270921243E1,5.433740616E-1,-5.077717900E-1,-9.926385880E-1,1.240330169E0
1.272777555E1,6.328573227E-1,-4.298479855E-1,-3.851404190E-1,8.565108428E-1
1.274629321E1,3.499415517E-1,-4.876172841E-1,1.442241669E-2,6.003646487E-1
1.276485649E1,-3.966417909E-2,-5.411059856E-1,-2.258968353E-2,5.430278341E-1
1.278346540E1,-2.956762612E-1,-5.151568055E-1,-5.148181915E-1,7.860335591E-1
1.280202868E1,9.686481953E-2,-3.444245458E-1,-1.053114891E0,1.112232905E0
1.282059191E1,7.731864452E-1,-1.651498675E-1,-1.224262238E0,1.457363985E0
1.283910962E1,1.133027792E0,3.963214159E-2,-1.016217232E0,1.522504564E0
1.285767285E1,7.573319077E-1,8.213883638E-2,-5.004453659E-1,9.114515737E-1
1.287625196E1,2.350656092E-1,-3.305327892E-2,-2.348089218E-1,3.338915837E-1
1.289481524E1,7.486611605E-2,-3.817558289E-2,-3.490352631E-2,9.099761870E-2
1.291336269E1,5.782693624E-2,4.863423109E-2,-7.883167267E-2,1.091955842E-1
1.293192597E1,2.936441600E-1,1.709285975E-1,-3.396148682E-1,4.803974780E-1
1.295048925E1,4.096074700E-1,2.645732760E-1,-6.045331955E-1,7.766837724E-1
1.296905248E1,4.761134982E-1,2.833803892E-1,-6.879415512E-1,8.833187907E-1
1.298763160E1,3.838375509E-1,3.687569499E-1,-4.475040436E-1,6.953940053E-1
1.300617904E1,1.999590248E-1,3.002745509E-1,-3.439054489E-1,4.984168690E-1
1.302474232E1,-8.839666843E-4,1.639266014E-1,-3.325843811E-1,3.707898092E-1
1.304335118E1,-1.165475249E-1,1.799628735E-1,-3.624458313E-1,4.211139300E-1
1.306191456E1,-1.955725253E-2,2.003430724E-1,-5.404405594E-1,5.767112198E-1
1.308080378E1,1.828256398E-1,3.177689314E-1,-8.540401459E-1,9.294013552E-1
1.309973831E1,3.538940549E-1,4.220725298E-1,-8.693304062E-1,1.029136326E0
1.311871936E1,5.034917593E-1,3.603467345E-1,-5.061521530E-1,7.997147759E-1
1.313765383E1,4.623160958E-1,2.617967129E-1,-1.566076279E-1,5.538949724E-1
1.315658826E1,3.827036023E-1,1.071817279E-1,1.013803482E-1,4.101560008E-1
1.317547618E1,8.224208653E-2,5.641222000E-2,1.184654236E-1,1.548552742E-1
1.319441071E1,-5.901758373E-2,3.647029400E-2,-2.813453674E-1,2.897729686E-1
1.321336144E1,3.676861525E-3,2.952142954E-1,-6.924180984E-1,7.527335668E-1
1.323229587E1,3.789429665E-1,4.877766371E-1,-6.077632904E-1,8.665448844E-1
1.325123040E1,7.249764204E-1,4.508309364E-1,7.906246185E-2,8.573740235E-1
1.327014863E1,6.006106138E-1,3.428130150E-1,4.040403366E-1,8.009384910E-1
1.328908316E1,4.524263740E-1,2.267894745E-1,8.605957031E-2,5.133510877E-1
1.330787779E1,4.047330618E-1,4.249650240E-1,-5.241804123E-1,7.868730695E-1
1.332644217E1,6.403784752E-1,6.821997166E-1,-7.605056763E-1,1.205756994E0
1.334495873E1,9.353939295E-1,7.466589212E-1,-3.495473862E-1,1.246853930E0
1.336352201E1,9.020927548E-1,5.385563374E-1,1.926870346E-1,1.068149128E0
1.338217706E1,5.775963664E-1,3.680938482E-1,5.067758560E-1,8.520166734E-1
1.340069524E1,3.924883008E-1,2.841814756E-1,4.259996414E-1,6.451990947E-1
1.341925852E1,3.599745035E-1,4.707970619E-1,1.574411392E-1,6.132040680E-1
1.343777508E1,5.154534578E-1,6.766405106E-1,-9.440517426E-2,8.558311660E-1
1.345633836E1,5.581811070E-1,8.862913847E-1,-1.026763916E-1,1.052435750E0
1.347494732E1,5.532996655E-1,1.046644092E0,-2.167320251E-1,1.203568504E0
1.349351050E1,4.940403104E-1,1.265314102E0,-3.289194107E-1,1.397599222E0
1.351207378E1,3.304944634E-1,1.328942418E0,-3.718070984E-1,1.418997907E0
1.353059144E1,1.572456956E-1,1.237733722E0,-2.187051773E-1,1.266705542E0
1.354915472E1,9.619326890E-2,1.062415123E0,1.710586548E-1,1.080388866E0
1.356773378E1,6.511631608E-2,7.922080755E-1,5.142965317E-1,9.467495403E-1
1.358629712E1,-1.584562659E-1,5.237212181E-1,6.194620132E-1,8.265140582E-1
1.360484451E1,-3.409804702E-1,4.035984278E-1,6.958551407E-1,8.737126237E-1
1.362340779E1,-2.140156329E-1,3.890277147E-1,8.393516541E-1,9.495559242E-1
1.364197107E1,-1.273120195E-1,3.321475387E-1,1.101349831E0,1.157368475E0
1.366055014E1,-1.840597689E-1,4.100784659E-1,1.510314941E0,1.575783478E0
1.367911316E1,3.927893937E-2,4.331446886E-1,1.751310349E0,1.804506884E0
1.369766087E1,2.116691470E-1,5.324903727E-1,1.869310379E0,1.955165241E0
1.371622415E1,2.259103954E-1,5.398713350E-1,1.385977745E0,1.504470297E0
1.373483300E1,1.524451673E-1,4.606664777E-1,1.254446030E0,1.345023410E0
1.375339748E1,-1.540704072E-2,3.545809984E-1,1.481793404E0,1.523704943E0
1.377195956E1,-1.117592752E-1,3.602921963E-3,1.154273987E0,1.159677349E0
1.379046430E1,-4.198736548E-1,-8.615142107E-2,4.943561554E-2,4.314624358E-1
1.380904050E1,-4.964336455E-1,-8.737558126E-2,-1.290753365E0,1.385685789E0
1.382764936E1,-5.162314773E-1,2.109014988E-2,-2.168123722E0,2.228833822E0
1.384621264E1,-5.528261662E-1,-7.272452116E-2,-1.999702454E0,2.075985436E0
1.386473029E1,-5.554120541E-1,-4.234125018E-1,-9.258518219E-1,1.159725094E0
1.388329352E1,-6.076633930E-1,-7.138750553E-1,-4.692277908E-1,1.048354479E0
1.390185852E1,-8.003296256E-1,-8.649012446E-1,-5.571060181E-1,1.303437297E0
1.392046686E1,-7.868031263E-1,-8.279948235E-1,-7.573566437E-1,1.370483007E0
1.393903008E1,-6.571714282E-1,-8.452811241E-1,-6.135225296E-1,1.234011491E0
1.395754660E1,-7.719829082E-1,-7.464573383E-1,-1.798114777E-1,1.088801330E0
1.397610988E1,-8.724780083E-1,-6.761311293E-1,1.907167435E-1,1.120153586E0
1.399467316E1,-1.003038883E0,-5.895205140E-1,1.668930054E-1,1.175361524E0
1.401323644E1,-1.105742216E0,-3.322500587E-1,-1.427364349E-1,1.163369950E0
1.403184529E1,-8.993752003E-1,-1.033259630E-1,-4.461288452E-1,1.009248707E0
1.405036295E1,-5.201184750E-1,1.187962294E-1,-4.468431473E-1,6.959199454E-1
1.406892623E1,-2.161951363E-1,2.156221271E-1,-2.120094299E-1,3.717273692E-1
1.408753623E1,2.247929573E-3,1.682134271E-1,-1.336011887E-1,2.148257150E-1
1.410609837E1,-5.534106493E-2,1.676008105E-1,-3.592977524E-1,4.003093054E-1
1.412461602E1,1.624619067E-1,1.985903978E-1,-6.806602478E-1,7.274134933E-1
1.414317925E1,3.521196544E-1,2.688840628E-1,-8.793268204E-1,9.846332044E-1
1.416174253E1,4.970693886E-1,2.855548859E-1,-1.015243530E0,1.165906941E0
1.418035258E1,4.378843904E-1,3.521603346E-1,-1.110198021E0,1.244306749E0
1.419910248E1,1.892465353E-1,2.854415178E-1,-1.141625404E0,1.191889120E0
1.421799071E1,-2.825726867E-1,2.623211145E-1,-1.051736832E0,1.120183045E0
1.423692524E1,-3.149390221E-1,2.754302025E-1,-8.649835587E-1,9.608563580E-1
1.425590618E1,-1.097298861E-1,4.435963035E-1,-7.027750015E-1,8.382786119E-1
1.427484180E1,1.072980165E-1,5.463255048E-1,-7.768878937E-1,9.557924570E-1
1.429372863E1,-5.521553755E-2,6.411167979E-1,-7.036600113E-1,9.535286654E-1
1.431266310E1,-2.583127022E-1,6.920519471E-1,-2.244682312E-1,7.720410199E-1
1.433159764E1,-4.807450771E-1,6.258398294E-1,-7.373046875E-2,7.926080389E-1
1.435053472E1,-6.985465288E-1,6.599613428E-1,-1.081647873E-1,9.670655863E-1
1.436951415E1,-8.452849984E-1,9.646192789E-1,-1.601505280E-1,1.292534438E0
1.438840102E1,-8.407161832E-1,1.234909058E0,-1.993179321E-4,1.493922395E0
1.440733555E1,-1.003215313E0,1.369890451E0,7.383289337E-1,1.851531914E0
1.442631472E1,-1.145173550E0,1.196416378E0,1.599061012E0,2.302136123E0
1.444487790E1,-1.133499146E0,1.057130337E0,1.720039368E0,2.315357486E0
1.446344227E1,-1.118884087E0,1.243659258E0,1.694005013E0,2.380807202E0
1.448195883E1,-1.040400982E0,1.475719452E0,1.594548225E0,2.408893137E0
1.450052212E1,-9.442756772E-1,1.523953438E0,1.944797516E0,2.645057280E0
1.451910128E1,-6.188900471E-1,1.242975235E0,2.594845772E0,2.942997945E0
1.453766446E1,-3.949865103E-1,6.354114413E-1,2.935581207E0,3.029422233E0
1.455622774E1,-5.116199851E-1,4.023416638E-1,3.313886642E0,3.377199802E0
1.457477519E1,-8.663393259E-1,4.379202724E-1,2.944097519E0,3.100004547E0
1.459333842E1,-1.075641870E0,4.900580049E-1,2.023629189E0,2.343552298E0
1.461191758E1,-1.061220884E0,7.663966417E-1,1.288847923E0,1.837030905E0
1.463048081E1,-7.488313913E-1,6.203750968E-1,7.230043411E-1,1.211754509E0
1.464902821E1,-6.716496348E-1,1.400644183E-1,5.729618073E-1,8.938772320E-1
1.466759149E1,-8.572165370E-1,-3.919488192E-1,7.551450729E-1,1.207761628E0
1.468620061E1,-1.681180835E0,-5.817688704E-1,5.822401047E-1,1.871851372E0
1.470476363E1,-2.683979511E0,-4.695526063E-1,6.833066940E-1,2.809116179E0
1.472332691E1,-2.806015015E0,-5.061648488E-1,1.005392075E0,3.023365069E0
1.474184456E1,-2.061828613E0,-3.980900347E-1,1.796286583E0,2.763378077E0
1.476040779E1,-8.934257030E-1,-2.590887547E-1,1.352084160E0,1.641178858E0
1.477900373E1,4.942517281E-1,-4.155932069E-1,3.601074219E-1,7.393780086E-1
1.479758102E1,5.806757212E-1,-3.334673643E-1,-2.042875290E-1,7.000844026E-1
1.481614321E1,-3.440531492E-1,-6.392109394E-2,5.484390259E-2,3.542122660E-1
1.483466087E1,-1.081882834E0,1.445084810E-1,2.402887344E-1,1.117627775E0
1.485322410E1,-1.268495560E0,3.036550879E-1,6.470050812E-1,1.455988658E0
1.487183300E1,-9.199961424E-1,7.542342544E-1,2.160024643E0,2.465962017E0
1.489038331E1,2.342816591E-1,8.422541618E-1,3.519043922E0,3.626010217E0
1.490891389E1,1.660934091E0,3.364454508E-1,4.971268654E0,5.252181416E0
1.492747717E1,1.175419331E0,-1.206371784E-1,4.153929710E0,4.318714620E0
1.494604493E1,6.118804216E-1,-5.640385151E-1,2.406328201E0,2.546164274E0
1.496461951E1,6.421412230E-1,-5.014412403E-1,9.383287430E-1,1.242678356E0
1.498318274E1,1.194712162E0,-5.051048994E-1,-8.666820526E-1,1.560001888E0
1.500171727E1,2.303541422E0,-6.951772571E-1,-2.054563999E0,3.163986051E0
1.502029347E1,2.690726995E0,-1.286913753E0,-2.776148796E0,4.074697646E0
1.503890342E1,7.067348957E-1,-1.455838680E0,-3.332425594E0,3.704591856E0
1.505745264E1,-1.069526672E0,-2.062630653E0,-4.632725716E0,5.182709723E0
1.507602889E1,-1.807803631E0,-2.633117914E0,-6.050046444E0,6.841383332E0
1.509454649E1,-1.487115979E0,-2.105582237E0,-5.642061234E0,6.203051302E0
1.511309680E1,7.638535500E-1,-1.345550299E0,-3.434823513E0,3.767225825E0
1.513171863E1,2.763352394E0,-5.307726860E-1,2.023582458E-1,2.821131858E0
1.515028305E1,4.011737823E0,-4.431008399E-1,2.627613068E0,4.816090650E0
1.516879956E1,2.788797379E0,-5.608245134E-1,2.422416687E0,3.736310688E0
1.518736279E1,1.011617899E0,-1.503440380E0,-2.473974228E-1,1.828909302E0
1.520597170E1,7.352318168E-1,-2.222270966E0,-3.022924900E0,3.823235413E0
1.522452212E1,1.423975587E0,-2.311203957E0,-3.617344379E0,4.522670733E0
1.524309821E1,2.434187651E0,-2.411468506E0,-1.737094879E0,3.841607540E0
1.526161581E1,3.527424335E0,-2.390923977E0,1.012084007E0,4.379903417E0
1.528016618E1,4.680738449E0,-2.256057024E0,3.655214310E0,6.352928252E0
1.529878795E1,2.885215521E0,-2.384479046E0,3.679878235E0,5.248972542E0
1.531735123E1,2.019155025E-2,-2.642716885E0,2.797871590E0,3.848694020E0
1.533590264E1,-2.235544682E0,-2.739887714E0,1.774486542E0,3.956443756E0
1.535443212E1,-2.647085667E0,-2.217990160E0,9.069385529E-1,3.570585444E0
1.537299540E1,-9.526420832E-1,-1.611422658E0,3.070487976E-1,1.896968341E0
1.539156154E1,1.283380270E0,-7.974351645E-1,7.754611969E-2,1.512937923E0
1.541013774E1,2.928060770E0,-3.065642715E-1,-2.987651825E-1,2.959186064E0
1.542868514E1,2.921628952E0,-5.296987295E-2,-1.974134445E-1,2.928769982E0
1.544724842E1,1.607298136E0,-4.594250023E-1,-3.842258453E-2,1.672110919E0
1.546585836E1,1.012470722E-1,-7.934396863E-1,1.049613953E-2,7.999422944E-1
1.548442055E1,-8.239500523E-1,-7.680006027E-1,-7.103443146E-2,1.128611760E0
1.550298389E1,-7.116960287E-1,-9.026849270E-1,-3.184556961E-1,1.192797277E0
1.552150144E1,-8.524990082E-2,-7.393198013E-1,-7.698974609E-1,1.070795692E0
1.554006472E1,7.963936329E-1,-1.163524985E-1,-9.063539505E-1,1.212129616E0
1.555863660E1,1.163300395E0,2.589318752E-1,-1.439053535E0,1.868472264E0
1.557723686E1,3.296345472E-1,2.682953477E-1,-1.862275600E0,1.910160135E0
1.559580008E1,-5.082254410E-1,-1.720541716E-2,-1.998852730E0,2.062523057E0
1.561431774E1,-6.730375290E-1,-3.547944427E-1,-1.959858894E0,2.102357129E0
1.563288097E1,-3.740843534E-1,-1.513935626E-1,-1.657565117E0,1.705983948E0
1.565146008E1,1.820773482E-1,1.472434998E-1,-1.092584610E0,1.117396053E0
1.567002331E1,6.415919065E-1,1.860151291E-1,-8.958110809E-1,1.117461094E0
1.568857076E1,4.792504907E-1,1.055303812E-1,-1.086322784E0,1.192021345E0
1.570713399E1,1.963829994E-1,1.057171822E-1,-1.469146729E0,1.485979312E0
1.572574316E1,1.993923187E-1,2.435538173E-1,-2.214951038E0,2.237204475E0
1.574430613E1,3.554970026E-1,4.831089377E-1,-2.415168762E0,2.488536219E0
1.576287045E1,3.876140714E-1,5.302358866E-1,-1.978560925E0,2.084729742E0
1.578138706E1,3.624261618E-1,3.149400949E-1,-1.148596764E0,1.244915464E0
1.579995029E1,3.625327349E-1,1.031099558E-1,-5.386123657E-1,6.573925215E-1
1.581855915E1,1.587855816E-1,1.138111353E-1,-5.798158646E-1,6.118433396E-1
1.583712243E1,-2.223815918E-1,2.826240063E-1,-1.324296951E0,1.372258109E0
1.585564118E1,-4.367572069E-1,5.141134262E-1,-1.954831123E0,2.067954108E0
1.587420331E1,-4.427819252E-1,6.212304831E-1,-2.134022713E0,2.266282437E0
1.589276660E1,-2.904453278E-1,4.787917137E-1,-1.734596729E0,1.822752261E0
1.591137545E1,-4.864794016E-1,4.452432394E-1,-1.086045265E0,1.270589654E0
1.592993982E1,-5.473601818E-1,4.936810732E-1,-6.045703888E-1,9.533255088E-1
1.594845633E1,-4.621998072E-1,6.556956768E-1,-3.871088028E-1,8.907405388E-1
1.596701962E1,-2.145493031E-1,8.841780424E-1,-2.865505219E-2,9.102874964E-1
1.598562868E1,-1.509579420E-1,9.186769724E-1,4.175157547E-1,1.020330870E0
1.600414607E1,-3.773183823E-1,8.244582415E-1,8.672924042E-1,1.254709794E0
1.602270936E1,-6.136353016E-1,6.934789419E-1,1.399609566E0,1.678203880E0
1.604127264E1,-9.240514040E-1,5.149930716E-1,1.757124901E0,2.050994095E0
1.605983586E1,-7.973524332E-1,1.482766867E-1,1.957520485E0,2.118877846E0
1.607844472E1,-4.185165167E-1,3.055634499E-1,2.616430283E0,2.667251867E0
1.609700805E1,-1.136052608E-2,5.698679686E-1,3.230549812E0,3.280446715E0
1.611557123E1,3.397284746E-1,6.257365942E-1,3.411089897E0,3.484608444E0
1.613408889E1,1.872625351E-1,6.265463829E-1,3.089435577E0,3.157885339E0
1.615265212E1,-2.894666195E-1,5.240417719E-1,2.794118881E0,2.857535831E0
1.617121540E1,-5.409222841E-2,-9.921288490E-2,2.977473259E0,2.979616783E0
1.618982430E1,2.722780406E-1,-6.684036851E-1,3.191848755E0,3.272429876E0
1.620834191E1,3.137347102E-1,-8.858823776E-1,2.888224602E0,3.037278124E0
1.622689222E1,-1.264250875E-1,-8.546320200E-1,1.824526787E0,2.018731579E0
1.624548425E1,-3.933799863E-1,-8.402060270E-1,4.202318192E-1,1.018473742E0
1.626404748E1,-5.219276547E-1,-6.111565828E-1,-6.045227051E-1,1.005668209E0
1.628261071E1,-6.624712348E-1,-3.400329947E-1,-1.046758652E0,1.284598867E0
1.630115816E1,-5.822954774E-1,-1.354011297E-1,-8.680152893E-1,1.053969654E0
1.631972139E1,-2.349702120E-1,8.522289991E-2,-3.090610504E-1,3.974829255E-1
1.633833024E1,6.275587082E-1,-4.876932502E-2,4.533987045E-1,7.757440071E-1
1.635689347E1,1.321537971E0,-4.254532456E-1,8.781585693E-1,1.642752430E0
1.637545790E1,1.523573279E0,-8.510407209E-1,1.162889481E0,2.097107005E0
1.639397441E1,1.268230677E0,-9.240953922E-1,1.376216888E0,2.087183333E0
1.641253769E1,6.872532368E-1,-1.044071913E0,6.165351868E-1,1.393742733E0
1.643114764E1,-1.602778137E-1,-1.021880746E0,-7.200660706E-1,1.260327093E0
1.644969686E1,-7.996550798E-1,-7.864810824E-1,-1.666075706E0,2.008434465E0
1.646822743E1,-6.423792243E-1,-5.444996357E-1,-1.799879074E0,1.987132508E0
1.648679066E1,-3.922333717E-1,-5.237500668E-1,-1.057533264E0,1.243598711E0
1.650540066E1,-2.109475136E-1,-7.352801561E-1,9.343147278E-3,7.649987293E-1
1.652396274E1,-3.557832539E-1,-9.271559119E-1,6.099834442E-1,1.165452535E0
1.654252602E1,-3.042526245E-1,-1.091275811E0,5.226764679E-1,1.247655099E0
1.656104368E1,-8.475485444E-2,-9.539961815E-1,2.952575684E-3,9.577582249E-1
1.657960691E1,4.589998722E-1,-7.235814333E-1,-4.702672958E-1,9.774468286E-1
1.659818597E1,8.110471368E-1,-5.354629755E-1,-6.279077530E-1,1.157059291E0
1.661674930E1,6.379240155E-1,-4.847211838E-1,-4.618673325E-1,9.247827358E-1
1.663531248E1,5.564292669E-1,-6.135220528E-1,-2.062320709E-2,8.285216684E-1
1.665385993E1,3.918731809E-1,-6.165823340E-1,1.453065872E-1,7.448841311E-1
1.667242321E1,1.397024095E-1,-4.593529105E-1,-1.780700684E-1,5.120847673E-1
1.669103212E1,-8.900444210E-2,-2.717357874E-1,-6.223316193E-1,6.848786558E-1
1.670959534E1,-6.719523668E-2,-1.627574563E-1,-7.346181870E-1,7.554264160E-1
1.672811295E1,6.892861426E-2,-1.068702340E-1,-7.685747147E-1,7.790247062E-1
1.674667618E1,4.435268342E-1,-6.851071119E-2,-5.776233673E-1,7.314769475E-1
1.676525904E1,7.745674849E-1,-5.341941118E-2,-3.407917023E-1,8.479076639E-1
1.678384936E1,6.080088615E-1,2.695798874E-3,-3.477392197E-1,7.004317297E-1
1.680241160E1,1.162196174E-1,-3.421008587E-2,-6.187219620E-1,6.304714075E-1
1.682092920E1,-1.870313436E-1,-9.342813492E-2,-8.642396927E-1,8.891680304E-1
1.683949243E1,-1.090730056E-1,-2.111683488E-1,-8.101110458E-1,8.442564176E-1
1.685810248E1,2.547188476E-2,-2.864836454E-1,-3.674840927E-1,4.666543200E-1
1.687666451E1,1.738840193E-1,-4.623534083E-1,-3.175678253E-1,5.872441145E-1
1.689522779E1,1.759771258E-4,-4.086140990E-1,-5.560808182E-1,6.900662209E-1
1.691374545E1,-5.635029823E-2,-2.957915664E-1,-8.232250214E-1,8.765657093E-1
1.693230868E1,7.805209607E-2,-1.601170301E-1,-1.101936340E0,1.116240696E0
1.695091753E1,1.316428483E-1,-1.083878279E-1,-1.321068764E0,1.332028693E0
1.696948076E1,-2.217847258E-1,-1.126102209E-1,-1.256753922E0,1.281132290E0
1.698799842E1,-4.962847233E-1,-2.553652525E-1,-9.814071655E-1,1.129012827E0
1.700656165E1,-6.086791754E-1,-3.102587461E-1,-5.994729996E-1,9.089107246E-1
1.702512628E1,-4.919507802E-1,-2.383072376E-1,-4.768610001E-1,7.253980445E-1
1.704370399E1,-3.279792666E-1,-1.427959204E-1,-7.557907104E-1,8.361702412E-1
1.706226696E1,-2.992252111E-1,-3.414070606E-2,-1.080874443E0,1.122047627E0
1.708081467E1,-3.056838214E-1,1.384496689E-1,-1.188748360E0,1.235205882E0
1.709937790E1,-1.181927472E-1,1.950869560E-1,-1.175426483E0,1.197353692E0
1.711798795E1,-3.927285969E-2,2.341760397E-1,-1.307321548E0,1.328710053E0
1.713654998E1,-1.453496516E-1,2.929886580E-1,-1.620925903E0,1.653592954E0
1.715511326E1,-1.997022629E-1,3.475712538E-1,-2.032289028E0,2.071445260E0
1.717363092E1,-1.531201899E-1,4.199119806E-1,-2.166386127E0,2.212012820E0
1.719219415E1,2.555337176E-2,4.511077404E-1,-1.875067234E0,1.928737489E0
1.721080300E1,1.192240641E-1,5.706362724E-1,-1.422285080E0,1.537119052E0
1.722936628E1,6.889489293E-2,7.266324759E-1,-1.152762413E0,1.364405527E0
1.724788389E1,1.117306054E-1,9.151096344E-1,-1.077022552E0,1.417704818E0
1.726644712E1,3.764435649E-1,1.011592746E0,-1.065134048E0,1.516423484E0
1.728505597E1,5.673344135E-1,1.109523892E0,-1.125006676E0,1.678854260E0
1.730361925E1,5.403912067E-1,1.186882734E0,-9.346437454E-1,1.604453867E0
1.732218243E1,3.397089243E-1,1.173219085E0,-4.270257950E-1,1.293907340E0
1.734070014E1,1.490586400E-1,1.070519209E0,3.352994919E-1,1.131660552E0
1.735926336E1,2.820944786E-1,1.000739574E0,9.601926804E-1,1.415283355E0
1.737784253E1,3.755819201E-1,1.076124907E0,1.242274284E0,1.685927635E0
1.739640566E1,3.080260754E-1,1.115860224E0,1.202922821E0,1.669445242E0
1.741496894E1,2.502505779E-1,1.030901551E0,1.195869446E0,1.598589094E0
1.743351633E1,2.728268504E-1,9.091534615E-1,1.611277580E0,1.870082872E0
1.745207956E1,2.690650821E-1,8.143904209E-1,2.576055527E0,2.715085607E0
1.747068847E1,2.692815065E-1,7.255733013E-1,3.392399788E0,3.479561103E0
1.748925279E1,2.150491029E-1,6.162739992E-1,3.745301247E0,3.801752384E0
1.750776930E1,2.068064064E-1,5.247814655E-1,3.279317856E0,3.327475030E0
1.752633258E1,2.222162485E-1,5.394165516E-1,2.937090874E0,2.994470417E0
1.754494144E1,4.162232876E-1,4.623628855E-1,3.197647095E0,3.257601603E0
1.756350472E1,5.685446858E-1,-3.371644020E-2,3.608285904E0,3.652958667E0
1.758206795E1,2.247625738E-1,-3.333251178E-1,3.814950943E0,3.836075409E0
1.760058555E1,5.506037176E-2,-5.063380003E-1,3.828213692E0,3.861946386E0
1.761914878E1,1.101213619E-1,-4.709023237E-1,3.020477295E0,3.058947336E0
1.763775764E1,3.014907837E-1,-3.768004477E-1,1.593132019E0,1.664615541E0
1.765632097E1,4.810866117E-1,-3.958861232E-1,2.584476471E-1,6.745111836E-1
1.767482660E1,4.655877948E-1,-5.687535405E-1,-6.748952866E-1,9.978658388E-1
1.769340175E1,-9.340931475E-2,-8.603541255E-1,-8.974828720E-1,1.246759811E0
1.771196503E1,-2.906484604E-1,-1.191111922E0,-4.413337708E-1,1.303073151E0
1.773057394E1,-2.922094464E-1,-1.331777215E0,1.591491699E-2,1.363550584E0
1.774913717E1,-1.165461317E-1,-1.357874870E0,-4.676151276E-2,1.363669243E0
1.776765472E1,5.815086886E-2,-1.291130543E0,-4.711713791E-1,1.375646056E0
1.778621800E1,1.334826797E-1,-1.149011731E0,-9.081983566E-1,1.470669861E0
1.780482686E1,-5.304069817E-2,-9.763366580E-1,-1.089890480E0,1.464208948E0
1.782336029E1,-2.923662663E-1,-9.395104647E-1,-1.075978279E0,1.458042250E0
1.784192357E1,-5.970570445E-1,-9.700586796E-1,-7.546854019E-1,1.366397092E0
1.786047097E1,-6.536810994E-1,-1.016175270E0,-2.055625916E-1,1.225629283E0
1.787903420E1,-6.608779430E-1,-1.065585613E0,1.759328842E-1,1.266169315E0
1.789764305E1,-5.793558359E-1,-1.019951224E0,2.198944092E-1,1.193443436E0
1.791620633E1,-4.748356938E-1,-8.511620760E-1,-3.071022034E-2,9.751353411E-1
1.793476956E1,-3.207207918E-1,-7.062470913E-1,-6.259117126E-1,9.967006834E-1
1.795328717E1,-2.712597251E-1,-5.523616076E-1,-1.268769264E0,1.410127877E0
1.797185040E1,-5.358108282E-1,-4.392720461E-1,-1.547453880E0,1.695484204E0
1.799045925E1,-7.725575566E-1,-4.411067963E-1,-1.493880272E0,1.738706028E0
1.800897691E1,-8.762150407E-1,-3.904914856E-1,-1.169258118E0,1.512415599E0
1.802754014E1,-7.012099028E-1,-2.882958651E-1,-7.860040665E-1,1.092067867E0
1.804610336E1,-5.099236965E-1,-2.123501301E-1,-5.866832733E-1,8.057989931E-1
1.806471342E1,-5.759053230E-1,-2.074607611E-1,-4.535703659E-1,7.618615263E-1
1.808324571E1,-6.573611498E-1,-1.801047325E-1,-9.059238434E-2,6.875815414E-1
1.810180894E1,-6.543374062E-1,-2.021796703E-1,1.856031418E-1,7.095650685E-1
1.812035633E1,-6.211366057E-1,-2.645634413E-1,-1.438350677E-1,6.902847414E-1
1.813891956E1,-7.069445848E-1,-1.592721939E-1,-7.081956863E-1,1.013251898E0
1.815752842E1,-5.649276972E-1,-9.926569462E-2,-1.220533371E0,1.348591373E0
1.817609170E1,-4.031987488E-1,-5.323278904E-2,-1.282843590E0,1.345767676E0
1.819465488E1,-2.398061752E-1,-2.492499352E-2,-8.788461685E-1,9.113170935E-1
1.821317253E1,-2.115759850E-1,-4.935860634E-3,-5.282878876E-1,5.691017943E-1
1.823173576E1,-2.547891140E-1,9.355533123E-2,-5.473346710E-1,6.109380776E-1
1.825034581E1,-1.627383232E-1,1.803472042E-1,-8.902301788E-1,9.227776803E-1
1.826886363E1,-1.311248541E-2,2.464090586E-1,-1.298108101E0,1.321353096E0
1.828742550E1,1.587316394E-2,3.617030382E-1,-1.480428696E0,1.524057141E0
1.830598873E1,6.082442403E-2,3.938610554E-1,-1.274028778E0,1.334906539E0
1.832459784E1,6.838926673E-2,3.968870640E-1,-8.562326431E-1,9.462191990E-1
1.834316086E1,-8.658957481E-2,3.728977442E-1,-5.108680725E-1,6.383859879E-1
1.836172514E1,-1.217791736E-1,3.615757227E-1,-2.644395828E-1,4.642148892E-1
1.838024170E1,-1.265726089E-1,4.902228117E-1,-2.208147049E-1,5.523569175E-1
1.839880493E1,-2.472367585E-1,6.266293526E-1,-4.965620041E-1,8.368776399E-1
1.841738404E1,-5.533753633E-1,7.742744684E-1,-7.720699310E-1,1.225486525E0
1.843594722E1,-7.155386806E-1,9.152067900E-1,-6.747016907E-1,1.343436431E0
1.845451045E1,-6.940491199E-1,9.683336020E-1,-2.976884842E-1,1.228003493E0
1.847305790E1,-6.501572132E-1,8.471233845E-1,-1.118888855E-1,1.073704593E0
1.849162113E1,-4.582131803E-1,6.566550732E-1,5.199241638E-2,8.024078857E-1
1.851022998E1,-4.630881250E-1,4.979990721E-1,6.274833679E-1,9.253048494E-1
1.852879321E1,-5.298437476E-1,1.972056627E-1,1.418420792E0,1.526938772E0
1.854731086E1,-4.530438781E-1,-2.248461246E-1,1.508393288E0,1.590928925E0
1.856587410E1,-3.284449577E-1,-3.914302588E-1,1.279716492E0,1.377957923E0
1.858448295E1,3.243582249E-1,-2.769376040E-1,1.646875381E0,1.701205813E0
1.860304623E1,9.362112880E-1,-4.083676338E-1,2.034575462E0,2.276566057E0
1.862161050E1,7.565689087E-1,-4.885775447E-1,2.253099442E0,2.426429810E0
1.864012706E1,2.674295306E-1,-4.371379614E-1,2.267620087E0,2.324803004E0
1.865869029E1,1.527842879E-1,-4.267243147E-1,1.762403488E0,1.819753482E0
1.867729910E1,4.038762450E-1,-4.155733585E-1,1.145293236E0,1.283555154E0
1.869586232E1,8.761935234E-1,-3.242675662E-1,1.021621704E0,1.384404367E0
1.871442665E1,1.276444674E0,-4.150123596E-1,9.738855362E-1,1.658312184E0
1.873294321E1,1.322371960E0,-6.263152361E-1,5.160951614E-1,1.551545227E0
1.875150644E1,1.247034788E0,-6.586424112E-1,-1.644897461E-2,1.410381564E0
1.877011529E1,1.512294292E0,-6.353572607E-1,-3.536920547E-1,1.678037826E0
1.878867982E1,1.592078447E0,-5.742189884E-1,-6.637601852E-1,1.817971070E0
1.880719618E1,1.401022553E0,-5.779971480E-1,-8.500480652E-1,1.737678512E0
1.882575941E1,1.301553965E0,-7.309755683E-1,-6.347532272E-1,1.622121963E0
1.884433847E1,1.127507806E0,-7.279523611E-1,-2.715463638E-1,1.369279343E0
1.886290170E1,1.073874593E0,-6.777729988E-1,-3.414516449E-1,1.314979888E0
1.888146967E1,1.004700065E0,-4.015339613E-1,-6.612186432E-1,1.268014920E0
1.890001232E1,1.184132814E0,-2.039659023E-1,-1.016578674E0,1.573913852E0
1.891857555E1,1.328879952E0,-1.730513573E-1,-1.382513046E0,1.925411910E0
1.893718446E1,1.294371128E0,-2.134928703E-1,-1.673518181E0,2.126414570E0
1.895612035E1,1.120632648E0,-2.528859377E-1,-1.546001434E0,1.926107283E0
1.897500821E1,1.062265396E0,-2.623696327E-1,-1.191138268E0,1.617422631E0
1.899394274E1,9.472233653E-1,-2.917752266E-1,-1.096109390E0,1.477775586E0
1.901292394E1,7.910765409E-1,-2.586175203E-1,-1.269780159E0,1.518231460E0
1.903185810E1,7.397578955E-1,-2.588955164E-1,-1.815847874E0,1.977769484E0
1.905079258E1,7.285197973E-1,-2.476574183E-1,-2.333393574E0,2.456990204E0
1.906968045E1,6.386808157E-1,-1.138960123E-1,-2.592299938E0,2.672247080E0
1.908861493E1,5.383626223E-1,-1.915740967E-2,-2.579361439E0,2.635015512E0
1.910759597E1,5.275877714E-1,3.808403015E-2,-2.042610168E0,2.109989467E0
1.912649993E1,4.886878133E-1,7.680237293E-2,-1.362419128E0,1.449448262E0
1.914543441E1,1.838538647E-1,1.374363899E-2,-1.063535690E0,1.079397654E0
1.916435258E1,-1.233115792E-1,1.419818401E-2,-8.584775925E-1,8.674048137E-1
1.918310165E1,-1.017449200E-1,1.569341421E-1,-6.738576889E-1,6.993314941E-1
1.920168076E1,1.209978163E-1,2.832047939E-1,-4.470624924E-1,5.428722676E-1
1.922024399E1,1.174547523E-1,4.399185181E-1,-1.598815918E-1,4.825826818E-1
1.923879139E1,-1.471230388E-1,4.689295292E-1,6.508541107E-2,4.957582098E-1
1.925735462E1,-2.961331606E-1,5.235518217E-1,2.076454163E-1,6.363316570E-1
1.927596347E1,-2.885093987E-1,6.057338715E-1,2.695360184E-1,7.230496950E-1
1.929452774E1,-8.593574166E-2,7.018607855E-1,3.267450333E-1,7.789453323E-1
1.931308993E1,4.759389162E-2,8.033813238E-1,2.278051376E-1,8.364101331E-1
1.933160753E1,1.445654035E-1,7.874087095E-1,1.872777939E-1,8.221828287E-1
1.935017076E1,1.988932639E-1,7.904841900E-1,3.844251633E-1,9.012249948E-1
1.936873399E1,4.063667655E-1,7.094724178E-1,7.997274399E-1,1.143699715E0
1.938734285E1,5.774805546E-1,5.568225384E-1,1.024778366E0,1.301424539E0
1.940586170E1,5.161983371E-1,4.725245237E-1,1.028283119E0,1.243827288E0
1.942442368E1,3.183800876E-1,4.762843847E-1,8.805503845E-1,1.050514957E0
1.944298691E1,1.997952163E-1,4.437263012E-1,5.439672470E-1,7.298708959E-1
1.946159691E1,2.546079457E-1,3.674488068E-1,3.763189316E-1,5.843455911E-1
1.948015899E1,2.498653680E-1,4.323333502E-1,6.326761246E-1,8.059924977E-1
1.949867660E1,4.739943147E-1,3.748811483E-1,8.881149292E-1,1.074222795E0
1.951723988E1,6.568330526E-1,2.296842337E-1,7.052383423E-1,9.907298449E-1
1.953581894E1,4.772238135E-1,1.470661163E-1,2.085762024E-1,5.411793076E-1
1.955438186E1,1.690225899E-1,1.931318045E-1,-3.138189316E-1,4.054020864E-1
1.957294540E1,-3.421723843E-2,2.750787735E-1,-7.837114334E-1,8.312898182E-1
1.959149279E1,-1.593331695E-1,2.198051214E-1,-1.051791191E0,1.086262427E0
1.961005602E1,-1.757842898E-1,-3.326582909E-2,-9.137678146E-1,9.311167225E-1
1.962866602E1,-2.767546475E-1,-4.116444588E-1,-5.053396225E-1,7.081048153E-1
1.964722810E1,-3.302112818E-1,-7.685692310E-1,-1.511735916E-1,8.500538855E-1
1.966579128E1,-2.472451031E-1,-1.005851746E0,1.564168930E-1,1.047537169E0
1.968430894E1,-9.688454866E-2,-1.114360094E0,4.513311386E-1,1.206186068E0
1.970287217E1,-3.537434340E-2,-1.031961679E0,4.015312195E-1,1.107891498E0
1.972148102E1,-2.623727322E-1,-7.627630234E-1,-9.035968781E-2,8.116721959E-1
1.974004420E1,-3.733132780E-1,-5.072548389E-1,-5.996513367E-1,8.696275069E-1
1.975856186E1,-3.876833320E-1,-3.070207834E-1,-7.902307510E-1,9.322149791E-1
1.977712508E1,-4.350960553E-1,-2.951531410E-1,-9.551649094E-1,1.090304525E0
1.979573415E1,-5.353808999E-1,-2.456270456E-1,-1.140218735E0,1.283379958E0
1.981429691E1,-5.347199440E-1,-1.800478697E-1,-1.055481911E0,1.196822760E0
1.983286045E1,-4.182268381E-1,-1.908214092E-1,-7.961931229E-1,9.193747806E-1
1.985137800E1,-3.918382823E-1,-1.501164436E-1,-5.572748184E-1,6.975868472E-1
1.986994123E1,-4.121056199E-1,-1.384339333E-1,-3.192911148E-1,5.393902222E-1
1.988855113E1,-3.479092717E-1,-1.289542913E-1,-1.186466217E-1,3.895472904E-1
1.990711331E1,-2.692020237E-1,-9.868609905E-2,-5.778694153E-2,2.924859079E-1
1.992567654E1,-2.909670174E-1,-1.455497742E-2,-2.272949219E-1,3.695086387E-1
1.994419415E1,-4.709590673E-1,8.297705650E-2,-4.088993073E-1,6.291949447E-1
1.996275738E1,-5.626604557E-1,1.530199051E-1,-2.480707169E-1,6.336725971E-1
1.998133649E1,-6.538319588E-1,2.156814337E-1,-3.287029266E-2,6.892714758E-1
1.999988383E1,-7.797428370E-1,2.281355858E-1,1.178503036E-1,8.209344866E-1
2.001844706E1,-7.980704308E-1,2.508816719E-1,3.327131271E-1,9.003088641E-1
2.003701029E1,-6.179610491E-1,1.921591759E-1,4.727191925E-1,8.014140266E-1
2.005561910E1,-5.318963528E-1,7.495927811E-2,4.741277695E-1,7.164703520E-1
2.007418342E1,-6.268477440E-1,1.801586151E-2,6.767015457E-1,9.225983131E-1
2.009274660E1,-5.869659185E-1,-4.107010365E-2,1.043891907E0,1.198301321E0
2.011126316E1,-5.988498926E-1,1.604775190E-1,1.157994270E0,1.313516257E0
2.012982639E1,-3.094218075E-1,2.883813381E-1,7.666873932E-1,8.756227555E-1
2.014839118E1,2.738739848E-1,1.443923712E-1,1.023921967E-1,3.260985715E-1
2.016699847E1,5.227873921E-1,1.266152859E-1,-2.073392868E-1,5.764786794E-1
2.018556284E1,3.946425319E-1,2.318880558E-1,1.166772842E-1,4.723646759E-1
2.020407930E1,5.050932765E-1,1.500817537E-1,7.880125046E-1,9.479490799E-1
2.022264253E1,6.700387001E-1,7.456278801E-2,1.440464020E0,1.590423862E0
2.024122160E1,6.896888614E-1,7.033348083E-6,1.636791229E0,1.776163352E0
2.025978477E1,6.197842360E-1,-1.272691488E-1,1.374537468E0,1.513169913E0
2.027833222E1,3.989918828E-1,-1.512178183E-1,7.032423019E-1,8.225637278E-1
2.029689545E1,3.866303563E-1,-2.347759008E-1,-1.092052460E-2,4.524621685E-1
2.031550430E1,4.747092724E-1,-3.083639145E-1,-3.011856079E-1,6.412097687E-1
2.033406748E1,5.134094357E-1,-3.934971094E-1,-3.255481720E-1,7.241621615E-1
2.035263186E1,3.989452124E-1,-4.305315018E-1,-2.781219482E-1,6.495124899E-1
2.037114836E1,4.164620638E-1,-4.977936745E-1,-1.328611374E-1,6.624886978E-1
2.038971154E1,5.744177103E-1,-6.081833839E-1,2.739429474E-2,8.370144454E-1
2.040841482E1,7.160342336E-1,-6.005177498E-1,1.774110794E-1,9.512104302E-1
2.042735040E1,7.197638750E-1,-4.963443279E-1,-9.001922607E-2,8.789318453E-1
2.044637040E1,8.074367046E-1,-3.402569294E-1,-7.473077774E-1,1.151606584E0
2.046530488E1,8.602347374E-1,-2.236537933E-1,-1.392196655E0,1.651737373E0
2.048423936E1,8.529158831E-1,-1.693385839E-1,-1.744024277E0,1.948784682E0
2.050318993E1,7.228110433E-1,-1.134831905E-1,-1.709687710E0,1.859668332E0
2.052210956E1,6.772972941E-1,-9.414410591E-2,-1.462621689E0,1.614576397E0
2.054104264E1,8.050390482E-1,-1.545052528E-1,-1.229195595E0,1.477457801E0
2.055997712E1,8.113673925E-1,-1.234319210E-1,-1.089352608E0,1.363906738E0
2.057895810E1,7.994498014E-1,-1.142917871E-1,-8.556823730E-1,1.176594629E0
2.059789248E1,8.603997231E-1,-1.393617392E-1,-5.188884735E-1,1.014374007E0
2.061682696E1,5.794288516E-1,-8.212304115E-2,-1.564102173E-1,6.057607977E-1
2.063567430E1,3.616417646E-1,1.222372055E-2,5.346012115E-2,3.657761198E-1
2.065423748E1,4.962215722E-1,1.759481430E-1,9.192466736E-3,5.265720266E-1
2.067281665E1,5.957333446E-1,3.666665554E-1,-2.109994888E-1,7.306595411E-1
2.069137977E1,5.016816854E-1,4.582146406E-1,-3.292875290E-1,7.550334080E-1
2.070992717E1,2.728860378E-1,4.451730251E-1,-2.385339737E-1,5.740594643E-1
2.072849040E1,2.158926427E-1,3.809900284E-1,-1.673526764E-1,4.687962811E-1
2.074705363E1,2.264706194E-1,3.077633381E-1,-3.473129272E-1,5.163656487E-1
2.076566352E1,2.508041263E-1,3.196580410E-1,-3.017091751E-1,5.060754877E-1
2.078420206E1,3.431036472E-1,3.159216642E-1,1.987285614E-1,5.069710562E-1
2.080274326E1,3.337559402E-1,2.374023199E-1,7.101707458E-1,8.198142335E-1
2.082130649E1,3.625646830E-1,1.300752163E-1,9.666671753E-1,1.040585479E0
2.083991649E1,3.770796657E-1,5.907773972E-3,9.900398254E-1,1.059435148E0
2.085847857E1,-3.754478693E-2,2.182245255E-2,1.065925598E0,1.066809829E0
2.087744462E1,-3.146363497E-1,8.073115349E-2,1.159409523E0,1.204053152E0
2.089633253E1,-1.559724212E-1,1.554000378E-1,1.208391190E0,1.228285730E0
2.091526701E1,2.680061162E-1,1.740381718E-1,1.411123276E0,1.446853643E0
2.093424899E1,5.072343349E-1,8.259916306E-2,1.648618698E0,1.726862155E0
2.095318238E1,4.183641672E-1,-1.381024122E-1,1.573517799E0,1.634031553E0
2.097207019E1,3.074566126E-1,-4.578725100E-1,1.002493858E0,1.144189993E0
2.099100467E1,8.506882191E-2,-5.902563334E-1,2.353410721E-1,6.411120524E-1
2.100995534E1,8.574187756E-3,-4.727215767E-1,-4.380893707E-1,6.445630322E-1
2.102888967E1,4.539045691E-2,-4.071925879E-1,-8.772792816E-1,9.682381087E-1
2.104782404E1,-6.774285436E-2,-3.638842106E-1,-9.440908432E-1,1.014055390E0
2.106674232E1,-2.179706693E-1,-4.421793222E-1,-6.727800369E-1,8.340663905E-1
2.108567675E1,-1.907493472E-1,-5.761007071E-1,-3.658123016E-1,7.085873116E-1
2.110444238E1,-4.618759453E-2,-5.960215330E-1,-2.922554016E-1,6.654233100E-1
2.112300555E1,1.212700531E-1,-5.806390047E-1,-3.828077316E-1,7.059673073E-1
2.114156764E1,2.155804783E-1,-5.700646639E-1,-3.576211929E-1,7.066410555E-1
2.116008529E1,1.097088903E-1,-6.057415009E-1,-1.934013367E-1,6.452618720E-1
2.117864847E1,-1.411155164E-1,-6.171480417E-1,-8.534908295E-2,6.388033816E-1
2.119735144E1,-3.020919561E-1,-5.187705755E-1,-1.989488602E-1,6.324263664E-1
2.121628482E1,-1.868793219E-1,-2.355128527E-1,-7.087574005E-1,7.698878084E-1
2.123517269E1,-1.638804823E-1,-1.387946606E-1,-1.073664665E0,1.094932228E0
2.125410717E1,-2.650377452E-1,-1.284414530E-1,-1.051868439E0,1.092322949E0
2.127304300E1,-3.668893278E-1,-1.691751480E-1,-7.331218719E-1,8.370756768E-1
2.129199222E1,-4.703978896E-1,-1.910488605E-1,-4.003314972E-1,6.465594708E-1
2.131092654E1,-4.889179468E-1,-1.704291105E-1,-1.153278351E-1,5.304595649E-1
2.132984488E1,-4.299826026E-1,-1.513056755E-1,3.331565857E-2,4.570430823E-1
2.134877936E1,-4.173673093E-1,-1.379758120E-1,4.084205627E-2,4.414757855E-1
2.136776029E1,-5.195212364E-1,-6.781351566E-2,-1.994800568E-2,5.243080306E-1
2.138669472E1,-5.143063068E-1,3.654897213E-2,-1.947593689E-2,5.159710425E-1
2.140558253E1,-5.415983796E-1,1.560329199E-1,8.760547638E-2,5.703944218E-1
2.142451701E1,-6.471098661E-1,2.378981113E-1,2.047853470E-1,7.192243938E-1
2.144322107E1,-7.798717022E-1,2.572185993E-1,2.031974792E-1,8.459612847E-1
2.146178316E1,-8.448324203E-1,3.139485121E-1,1.464662552E-1,9.131034173E-1
2.148034748E1,-7.759180069E-1,3.526240587E-1,9.834194183E-2,8.579415002E-1
2.149886399E1,-6.580740213E-1,3.930617571E-1,1.541748047E-1,7.818752029E-1
2.151742722E1,-5.237969160E-1,3.563678265E-1,2.646312714E-1,6.865791628E-1
2.153603602E1,-5.370063186E-1,4.103074074E-1,5.390510559E-1,8.644674636E-1
2.155460040E1,-6.012312174E-1,3.245760202E-1,6.795120239E-1,9.636208592E-1
2.157311837E1,-7.600410581E-1,4.265120029E-1,6.243820190E-1,1.072113709E0
2.159168008E1,-5.661153197E-1,3.439849615E-1,2.646369934E-1,7.133336858E-1
2.161024331E1,-1.355080903E-1,1.021357775E-1,-6.779766083E-2,1.827311752E-1
2.162885206E1,-2.074152231E-3,-6.609439850E-2,-2.186679840E-2,6.964860726E-2
2.164741535E1,-1.726028025E-1,-1.409323215E-1,4.750080109E-1,5.246772885E-1
2.166593295E1,-2.692882121E-1,-1.766852140E-1,1.139831543E0,1.184461799E0
2.168449618E1,3.285637125E-2,-5.570566654E-2,1.802072525E0,1.803232666E0
2.170310498E1,4.477666020E-1,6.034040451E-2,2.024541855E0,2.074344623E0
2.172163847E1,5.802549124E-1,-6.685423851E-2,1.459125519E0,1.571690979E0
2.174020165E1,3.124486208E-1,-2.222399712E-1,4.323501587E-1,5.778766349E-1
2.175874899E1,2.397584170E-1,-2.631920576E-1,-2.390518188E-1,4.288355510E-1
2.177731222E1,5.065381527E-1,-3.214060068E-1,-6.080627441E-1,8.541797365E-1
2.179592107E1,6.546778083E-1,-3.910785913E-1,-7.193489075E-1,1.048335990E0
2.181448425E1,7.957128286E-1,-5.079166889E-1,-5.906953812E-1,1.113579500E0
2.183304748E1,7.395690680E-1,-7.458405495E-1,-5.391883850E-1,1.180662799E0
2.185156508E1,4.539508820E-1,-9.519719481E-1,-5.837230682E-1,1.205427150E0
2.187012831E1,2.101489902E-1,-1.011091471E0,-6.412115097E-1,1.215574251E0
2.188873712E1,2.043717802E-1,-9.379281402E-1,-6.453790665E-1,1.156715678E0
2.190730029E1,1.740425676E-1,-7.275031805E-1,-5.306882858E-1,9.171596097E-1
2.192581795E1,2.319306135E-2,-5.620781183E-1,-3.894710541E-1,6.842203089E-1
2.194438113E1,-2.009294331E-1,-5.360124111E-1,-4.445085526E-1,7.247549898E-1
2.196299133E1,-4.013590515E-1,-4.508397579E-1,-5.150814056E-1,7.935076748E-1
2.198155316E1,-3.117465675E-1,-4.724981785E-1,-5.796966553E-1,8.102398800E-1
2.200007081E1,-1.973545551E-1,-4.637980461E-1,-6.567583084E-1,8.278821919E-1
2.201863399E1,-1.077593863E-1,-3.370313644E-1,-6.399011612E-1,7.312152365E-1
2.203719722E1,2.619832754E-3,-2.537943125E-1,-6.010427475E-1,6.524345185E-1
2.205577618E1,1.413166523E-3,-1.859158278E-1,-5.136528015E-1,5.462654049E-1
2.207433951E1,7.080799341E-2,-1.958872080E-1,-4.049615860E-1,4.553893459E-1
2.209290269E1,5.665123463E-2,-2.395061255E-1,-3.001422882E-1,3.881468017E-1
2.211145008E1,-3.260159492E-2,-2.169077396E-1,-7.406711578E-2,2.315119201E-1
2.213001326E1,-1.215896606E-1,-1.663256884E-1,1.008853912E-1,2.294038848E-1
2.214862212E1,-2.586724758E-1,-1.291346550E-1,9.738636017E-2,3.050759119E-1
2.216718529E1,-3.035268784E-1,-6.497526169E-2,1.140365601E-1,3.306882029E-1
2.218570290E1,-1.442925334E-1,-3.467643261E-2,2.155408859E-1,2.616881038E-1
2.220426613E1,-3.395652771E-2,5.074501038E-3,3.718271255E-1,3.734089014E-1
2.222287519E1,4.047608376E-2,4.148840904E-3,4.678564072E-1,4.696223418E-1
2.224143816E1,1.354741156E-1,-2.739512920E-2,3.917007446E-1,4.153711623E-1
2.226000139E1,2.738160789E-1,-1.269835234E-1,2.981357574E-1,4.242463791E-1
2.227851899E1,3.283455372E-1,-1.533192396E-1,5.242061615E-1,6.372673542E-1
2.229708217E1,1.742069721E-1,-2.047406435E-1,8.756084442E-1,9.159459306E-1
2.231569097E1,3.886723518E-2,-1.439385414E-1,9.802904129E-1,9.915635427E-1
2.233425420E1,-6.978422403E-2,1.092410088E-2,6.223678589E-1,6.263632538E-1
2.235281738E1,8.447200060E-2,1.472898722E-1,2.724285126E-1,3.210095322E-1
2.237133503E1,5.211786032E-1,6.009709835E-2,4.940462112E-1,7.206389224E-1
2.238989821E1,4.109482765E-1,-1.744427681E-1,1.120981216E0,1.206609984E0
2.240847727E1,-8.647912741E-2,-4.222680330E-1,1.177948952E0,1.254333554E0
2.242704045E1,-1.598336101E-1,-6.137386560E-1,6.373891830E-1,8.991589912E-1
2.244558785E1,-2.162602544E-1,-6.345878839E-1,-9.348869324E-2,6.769124137E-1
2.246415107E1,-3.312529624E-1,-6.086354256E-1,-3.246650696E-1,7.652274261E-1
2.248271529E1,-5.370072126E-1,-5.827395916E-1,-1.790409088E-1,8.124148110E-1
2.250132425E1,-7.646975517E-1,-6.468617916E-1,-1.348218918E-1,1.010628253E0
2.251988633E1,-8.907986879E-1,-7.264944315E-1,-2.828245163E-1,1.183767785E0
2.253840389E1,-8.995026350E-1,-8.226758242E-1,-3.962936401E-1,1.281775780E0
2.255696712E1,-8.902707100E-1,-9.151527882E-1,-3.807477951E-1,1.332312068E0
2.257553029E1,-6.588662863E-1,-1.021290541E0,-2.138748169E-1,1.234050886E0
2.259413915E1,-6.112539768E-1,-1.032546997E0,4.141330719E-2,1.200624749E0
2.261270232E1,-6.770929098E-1,-1.107074142E0,3.152189255E-1,1.335451584E0
2.263121993E1,-8.095063567E-1,-1.046845317E0,4.201993942E-1,1.388435519E0
2.264978316E1,-8.867961168E-1,-9.254548550E-1,2.612400055E-2,1.282012677E0
2.266836217E1,-8.563095331E-1,-7.422738075E-1,-6.211452484E-1,1.292307178E0
2.268690852E1,-7.828788757E-1,-6.539772749E-1,-9.689998627E-1,1.406963519E0
2.270547279E1,-8.342424631E-1,-5.991506577E-1,-7.999868393E-1,1.301891294E0
2.272403597E1,-9.143478274E-1,-5.769609213E-1,-5.815200806E-1,1.227632461E0
2.274264592E1,-9.897841215E-1,-4.936521053E-1,-3.979310989E-1,1.175463384E0
2.276120805E1,-9.738839865E-1,-4.415252209E-1,-2.374658585E-1,1.095346782E0
2.277972665E1,-9.226817489E-1,-4.564599991E-1,-8.305072784E-2,1.032760749E0
2.279828878E1,-9.539721012E-1,-4.596066475E-1,3.113842010E-2,1.059372759E0
2.281685201E1,-1.083916306E0,-4.611802101E-1,1.562166214E-1,1.188261494E0
2.283543107E1,-1.116004825E0,-3.818544149E-1,1.101121902E-1,1.184653644E0
2.285399430E1,-1.006042361E0,-2.622522116E-1,-8.616065979E-2,1.043226301E0
2.287255748E1,-8.484183550E-1,-1.280558109E-1,-1.531143188E-1,8.715824634E-1
2.289110482E1,-7.813228369E-1,-7.930982113E-2,-9.216213226E-2,7.907270590E-1
2.290966805E1,-8.276819587E-1,-9.573042393E-2,3.063964844E-2,8.337628721E-1
2.292827686E1,-1.043151259E0,-4.249405861E-2,1.542558670E-1,1.055350732E0
2.294684003E1,-1.009362221E0,-3.161847591E-2,1.185874939E-1,1.016796349E0
2.296535764E1,-8.456886411E-1,2.141427994E-2,-1.191825867E-1,8.543139575E-1
2.298392086E1,-7.390788794E-1,8.641147614E-2,-6.857585907E-2,7.472664729E-1
2.300252993E1,-6.296550035E-1,1.645696163E-1,4.038648605E-1,7.659343364E-1
2.302109285E1,-5.396183729E-1,2.030782700E-1,9.158916473E-1,1.082259803E0
2.303965607E1,-3.774002194E-1,4.408001900E-1,1.011564255E0,1.166189511E0
2.305817368E1,-2.100699246E-1,5.586838722E-1,7.394342422E-1,9.502736663E-1
2.307673691E1,-1.556116492E-1,4.714727402E-1,2.290191650E-1,5.467643990E-1
2.309534571E1,-3.678467572E-1,3.895177841E-1,-2.408590317E-1,5.874082176E-1
2.311390894E1,-6.275237203E-1,1.606230736E-1,-2.666416168E-1,7.004880749E-1
2.313247326E1,-6.240839958E-1,-1.960126162E-1,2.437801361E-1,6.980906347E-1
2.315098972E1,-6.452659369E-1,-3.543672562E-1,9.737138748E-1,1.220681364E0
2.316955290E1,-5.359385610E-1,-2.944885492E-1,1.373360634E0,1.503353943E0
2.318813191E1,-3.990223408E-1,-2.836428881E-1,1.161862373E0,1.260791930E0
2.320669519E1,-3.816329241E-1,-3.414113522E-1,5.805130005E-1,7.740805797E-1
2.322524253E1,-5.250052810E-1,-3.847783804E-1,2.080144882E-1,6.833410381E-1
2.324380571E1,-6.536821723E-1,-5.735211372E-1,1.145181656E-1,8.771210221E-1
2.326241451E1,-7.158656120E-1,-6.684916019E-1,7.597541809E-2,9.824036139E-1
2.328097769E1,-4.609178603E-1,-6.966902018E-1,-3.020954132E-2,8.359037789E-1
2.329954097E1,-1.236022338E-1,-8.026306629E-1,-2.236757278E-1,8.423326685E-1
2.331805852E1,-1.891590655E-2,-9.877121449E-1,-3.199577332E-1,1.038415160E0
2.333662175E1,-1.829160601E-1,-1.107700825E0,-2.810802460E-1,1.157352801E0
2.335523050E1,-2.722396851E-1,-1.302807689E0,-1.420421600E-1,1.338505994E0
2.337375024E1,-3.557966650E-1,-1.441718102E0,9.108734131E-2,1.487763172E0
2.339235696E1,-5.681008697E-1,-1.333533525E0,3.333368301E-1,1.487334429E0
2.341087456E1,-5.502702594E-1,-1.153244495E0,4.666614532E-2,1.278650833E0
2.342943774E1,-4.525449872E-1,-8.098812103E-1,-5.330524445E-1,1.069976378E0
2.344804654E1,-4.253367186E-1,-5.647569895E-1,-1.041051865E0,1.258431868E0
2.346660977E1,-5.060480237E-1,-4.912513494E-1,-1.135504723E0,1.336706200E0
2.348512732E1,-7.312647104E-1,-5.024794340E-1,-1.020234108E0,1.352076660E0
2.350369055E1,-6.547326446E-1,-6.892676353E-1,-9.276475906E-1,1.328267579E0
2.352226988E1,-5.550807714E-1,-7.306480408E-1,-7.505369186E-1,1.185439534E0
2.354083274E1,-3.783458471E-1,-7.621682882E-1,-4.715290070E-1,9.728235626E-1
2.355939597E1,-4.095699787E-1,-7.746431828E-1,-2.861270905E-1,9.217854088E-1
2.357794337E1,-5.100789070E-1,-7.667170763E-1,-8.800125122E-2,9.250836647E-1
2.359650654E1,-4.679684043E-1,-7.877632380E-1,-6.116104126E-2,9.183169493E-1
2.361511540E1,-4.094266295E-1,-7.404158115E-1,3.338146210E-2,8.467349414E-1
2.363367857E1,-4.058833718E-1,-7.027986050E-1,1.028146744E-1,8.180697085E-1
2.365224295E1,-4.239901602E-1,-7.206171751E-1,5.708408356E-2,8.380425774E-1
2.367075936E1,-3.664321601E-1,-6.527359486E-1,-4.013442993E-2,7.496315888E-1
2.368932253E1,-1.482814103E-1,-5.200401545E-1,-7.544898987E-2,5.460052097E-1
2.370793243E1,-1.088394225E-2,-4.232081175E-1,-1.921081543E-2,4.237837023E-1
2.372649456E1,1.384077966E-2,-4.038593769E-1,3.366851807E-2,4.054966493E-1
2.374501217E1,-1.506641507E-3,-4.266332388E-1,-9.689331055E-4,4.266369994E-1
2.376357535E1,8.948570490E-2,-4.435415268E-1,-1.751785278E-1,4.852054142E-1
2.378215441E1,7.427974045E-2,-3.565635681E-1,-3.352861404E-1,4.950473249E-1
2.380071758E1,1.713710576E-1,-3.242377043E-1,-3.370170593E-1,4.980749206E-1
2.381928076E1,1.422677785E-1,-2.795414925E-1,-2.522315979E-1,4.024976345E-1
2.383782816E1,3.144222200E-1,-2.358913422E-1,-7.861328125E-2,4.008567147E-1
2.385639133E1,3.934359550E-1,-1.458148956E-1,4.961109161E-2,4.225104672E-1
2.387500019E1,3.343226314E-1,-1.441612244E-1,5.876922607E-2,3.687924923E-1
2.389356342E1,2.229679823E-1,-1.203523874E-1,2.305603027E-2,2.544228740E-1
2.391212764E1,1.124427691E-1,-1.124277115E-1,6.489944458E-2,1.717419708E-1
2.393064415E1,2.174437046E-3,-1.029191017E-1,2.176618576E-1,2.407773950E-1
2.394920732E1,1.487652957E-2,-1.465960741E-1,3.603439331E-1,3.893063963E-1
2.396787519E1,-1.611970738E-2,-2.175108194E-1,5.275430679E-1,5.708524241E-1
2.398637930E1,-1.735773087E-1,-3.165316582E-1,7.313346863E-1,8.155806496E-1
2.400489691E1,-2.919901907E-1,-4.399423599E-1,6.618881226E-1,8.467015049E-1
2.402346014E1,-3.833651245E-1,-4.096523523E-1,3.090152740E-1,6.405265865E-1
2.404211514E1,-3.741788864E-1,-3.690173626E-1,1.348400116E-2,5.257047377E-1
2.406063212E1,-2.827848792E-1,-3.351827860E-1,-4.151535034E-2,4.404978005E-1
2.407919540E1,-7.058448344E-2,-2.974094152E-1,2.037134171E-1,3.673332082E-1
2.409771290E1,1.840836704E-1,-2.834135294E-1,7.525844574E-1,8.249808433E-1
2.411627613E1,2.970315814E-1,-3.918305635E-1,1.048607826E0,1.158161182E0
2.413488602E1,6.844785810E-2,-4.100147486E-1,9.619626999E-1,1.047935799E0
2.415341831E1,-2.829763293E-2,-4.401332736E-1,8.883819580E-1,9.918369613E-1
2.417198154E1,8.826045692E-2,-6.617218256E-1,9.160957336E-1,1.133533006E0
2.419052889E1,-1.587197483E-1,-8.074057102E-1,9.484186172E-1,1.255624870E0
2.420909206E1,-7.647141218E-1,-8.047645092E-1,7.695112228E-1,1.350770567E0
2.422767113E1,-9.104964137E-1,-8.753287196E-1,3.078594208E-1,1.299992888E0
2.424623430E1,-8.079916835E-1,-8.693521619E-1,-9.088420868E-2,1.190329232E0
2.426478165E1,-5.913007259E-1,-1.017142773E0,-2.896728516E-1,1.211662630E0
2.428334488E1,-4.626832008E-1,-1.212535739E0,-2.174987793E-1,1.315911996E0
2.430190805E1,-4.087527990E-1,-1.335735321E0,5.451202393E-2,1.397941079E0
2.432051691E1,-3.365975320E-1,-1.538848400E0,3.448686600E-1,1.612540446E0
2.433908118E1,-2.371273935E-1,-1.699149251E0,4.971876144E-1,1.786206344E0
2.435759764E1,-2.776641846E-1,-1.646080971E0,5.779409409E-1,1.766549092E0
2.437616081E1,-2.952234447E-1,-1.567323565E0,4.150733948E-1,1.648012732E0
2.439472404E1,-3.995625377E-1,-1.453170061E0,-2.885055542E-2,1.507377127E0
2.441328722E1,-5.180065632E-1,-1.382865310E0,-4.973430634E-1,1.558203256E0
2.443194149E1,-6.369394064E-1,-1.268355370E0,-6.723814011E-1,1.570513897E0
2.445041363E1,-6.226530075E-1,-1.163291812E0,-5.799179077E-1,1.441266591E0
2.446897680E1,-6.048232317E-1,-1.117369294E0,-4.641141891E-1,1.352674115E0
2.448753998E1,-7.882292271E-1,-1.120453715E0,-3.541393280E-1,1.414968730E0
2.450610321E1,-9.109770060E-1,-1.203758955E0,-1.397809982E-1,1.516065122E0
2.452466639E1,-8.711612225E-1,-1.239273787E0,5.800819397E-2,1.515944044E0
2.454322956E1,-7.359021306E-1,-1.263929129E0,1.285648346E-1,1.468195391E0
2.456179279E1,-7.796180248E-1,-1.225239158E0,2.305850983E-1,1.470436923E0
2.458035597E1,-8.600199819E-1,-1.211708307E0,4.168787003E-1,1.543262532E0
2.459891915E1,-8.321728110E-1,-1.245220661E0,4.779701233E-1,1.572113711E0
2.461748232E1,-9.425831437E-1,-1.147616744E0,4.543752670E-1,1.553043482E0
2.463604555E1,-9.622339010E-1,-1.100811362E0,4.844007492E-1,1.540234989E0
2.465460873E1,-8.970706463E-1,-1.052177787E0,3.696146011E-1,1.431233312E0
2.467321868E1,-7.360094786E-1,-8.116614819E-1,1.828622818E-1,1.110829837E0
2.469173514E1,-4.580105245E-1,-6.879786849E-1,-1.787843704E-1,8.456075701E-1
2.471029831E1,-4.211741984E-1,-5.494166613E-1,-3.425302505E-1,7.723816062E-1
2.472886149E1,-4.602416456E-1,-4.969289303E-1,-2.565956116E-1,7.242941681E-1
2.474742467E1,-5.482122898E-1,-4.948582649E-1,-9.449195862E-2,7.445469410E-1
2.476598790E1,-4.757787287E-1,-5.539058447E-1,2.151298523E-2,7.305065996E-1
2.478455107E1,-5.080467463E-1,-4.910924435E-1,2.071790695E-1,7.363466923E-1
2.480311425E1,-5.418851376E-1,-4.504493475E-1,4.238996506E-1,8.223351085E-1
2.482167743E1,-4.695087671E-1,-3.277986050E-1,4.272308350E-1,7.144344576E-1
2.484024066E1,-3.988215029E-1,-1.616473198E-1,2.812795639E-1,5.141076154E-1
2.485880383E1,-4.358279705E-1,-1.409019232E-1,1.293888092E-1,4.759630614E-1
2.487736696E1,-4.918964803E-1,-1.555731297E-1,1.246671677E-1,5.307608206E-1
2.489593024E1,-5.688698292E-1,-1.779854298E-1,1.693248749E-1,6.196471649E-1
2.491453930E1,-6.607704163E-1,-2.188090086E-1,2.465724945E-1,7.384395170E-1
2.493305660E1,-8.391126394E-1,-1.885987520E-1,3.330802917E-1,9.222917064E-1
2.495161977E1,-1.016154408E0,-1.008269787E-1,1.881494522E-1,1.038333317E0
2.497018295E1,-8.980548978E-1,3.342151642E-2,-5.835247040E-2,9.005690468E-1
2.498874618E1,-6.152260900E-1,5.357635021E-2,-1.287536621E-1,6.308336330E-1
2.500730936E1,-5.121271014E-1,-1.045765877E-1,3.644657135E-2,5.239644866E-1
2.502587253E1,-7.663886547E-1,-3.785645962E-1,2.393083572E-1,8.876548954E-1
2.504443571E1,-1.046135545E0,-5.393604040E-1,5.399322510E-1,1.294927048E0
2.506299894E1,-1.049541712E0,-4.549742937E-1,7.208185196E-1,1.352079417E0
2.508156212E1,-8.208865523E-1,-2.658612728E-1,4.910898209E-1,9.928273568E-1
2.510012529E1,-5.261566043E-1,-1.416131258E-1,1.501407623E-1,5.651878432E-1
2.511868847E1,-3.988891840E-1,-2.194533348E-1,-2.283000946E-2,4.558437853E-1
2.513725165E1,-4.997916818E-1,-3.203581572E-1,-9.378337860E-2,6.010128086E-1
2.515581488E1,-4.507681131E-1,-4.231213331E-1,-2.928428650E-1,6.840910012E-1
2.517437805E1,-2.745428383E-1,-3.650027514E-1,-5.077695847E-1,6.829573410E-1
2.519303305E1,4.389809072E-2,-2.882535458E-1,-4.734125137E-1,5.560005011E-1
2.521150441E1,3.997779489E-1,-2.613915205E-1,-2.839012146E-1,5.556508211E-1
2.523006758E1,4.857090116E-1,-3.048365116E-1,-3.219604492E-2,5.743475673E-1
2.524863081E1,2.145448625E-1,-4.797357321E-1,1.838865280E-1,5.567675690E-1
2.526719399E1,-2.264199257E-1,-7.298873663E-1,3.110837936E-1,8.250907083E-1
2.528575717E1,-6.275909543E-1,-8.703145385E-1,2.651538849E-1,1.105271181E0
2.530432034E1,-7.453693151E-1,-7.558308840E-1,1.054105759E-1,1.066755422E0
2.532288352E1,-4.748153090E-1,-5.875161886E-1,-3.306102753E-1,8.245774698E-1
2.534144675E1,-2.157741040E-1,-4.305081367E-1,-8.346767426E-1,9.636290699E-1
2.536000993E1,-8.656786382E-2,-3.042327166E-1,-1.052713394E0,1.099207456E0
2.537857310E1,-1.430310756E-1,-3.988169432E-1,-1.004749298E0,1.090428354E0
2.539713628E1,-3.695139289E-1,-4.350489378E-1,-6.872825623E-1,8.934010534E-1
2.541569946E1,-5.419351459E-1,-5.485497713E-1,-3.918800354E-1,8.649685058E-1
2.543426264E1,-5.162355900E-1,-7.104547024E-1,-3.524293900E-1,9.462830144E-1
2.545282586E1,-4.463988543E-1,-7.287217379E-1,-2.181978226E-1,8.819963708E-1
2.547138904E1,-3.314041495E-1,-7.341459990E-1,4.913616180E-2,8.069779554E-1
2.548995222E1,-2.865602374E-1,-7.632096410E-1,1.259403229E-1,8.249040494E-1
2.550851540E1,-4.398213625E-1,-7.215914130E-1,1.363363266E-1,8.559933365E-1
2.552707857E1,-4.370373487E-1,-6.726062298E-1,3.911113739E-2,8.030756288E-1
2.554564175E1,-3.111687899E-1,-6.241940260E-1,-1.487255096E-1,7.131363650E-1
2.556420498E1,-1.503237784E-1,-4.903826714E-1,-4.444370270E-1,6.786727294E-1
2.558276816E1,-1.086264849E-1,-3.297766447E-1,-4.206209183E-1,5.454120511E-1
2.560133133E1,-7.884079218E-2,-2.715381384E-1,-1.495141983E-1,3.198489122E-1
2.561989451E1,-1.522739232E-1,-2.075135708E-1,4.170322418E-2,2.607458315E-1
2.563845769E1,-2.661924362E-1,-2.148452997E-1,2.496843338E-1,4.235081846E-1
2.565702087E1,-3.180199265E-1,-2.470141649E-1,4.895896912E-1,6.339169796E-1
2.567562962E1,-2.687793970E-1,-3.031178713E-1,5.730285645E-1,7.017724302E-1
2.569414727E1,-2.307082266E-1,-2.653825283E-1,4.247388840E-1,5.514139023E-1
2.571271045E1,-2.885433435E-1,-2.309538126E-1,2.859048843E-1,4.672670837E-1
2.573127363E1,-2.649828792E-1,-2.448661327E-1,2.717437744E-1,4.516857626E-1
2.574983680E1,-2.745538056E-1,-1.986947060E-1,4.556646347E-1,5.678817110E-1
2.576839998E1,-3.053263426E-1,-2.225619555E-1,4.078197479E-1,5.559450929E-1
2.578696316E1,-2.912509441E-1,-2.651193142E-1,1.907072067E-1,4.375895359E-1
2.580552633E1,-1.930614412E-1,-2.044861317E-1,2.534103394E-2,2.823640666E-1
2.582408951E1,-1.117305756E-1,-8.478176594E-2,-1.645498276E-1,2.162135868E-1
2.584265269E1,-1.807315350E-1,6.263160706E-2,-4.671754837E-1,5.048163414E-1
2.586121587E1,-3.410813212E-1,3.243530989E-1,-5.196123123E-1,7.010979643E-1
2.587977910E1,-2.766987681E-2,1.343929768E-1,-1.510391235E-1,2.040585973E-1
2.589834227E1,5.520909429E-1,-5.032856464E-1,7.586727142E-1,1.064746514E0
2.591689253E1,4.860284925E-1,-9.398075938E-1,2.056667328E0,2.312864567E0
2.593546863E1,-4.852962121E-2,-1.026984930E0,2.656739235E0,2.848739464E0
2.595407743E1,-3.871082962E-1,-9.699825048E-1,1.539093018E0,1.859980164E0
2.597258206E1,-3.990948498E-1,-7.622378469E-1,-2.000465393E-1,8.833469603E-1
2.599115988E1,-1.655037552E-1,-5.530213118E-1,-1.053610802E0,1.201382448E0
2.600972133E1,9.206758440E-2,-6.694834232E-1,-5.070562363E-1,8.448612435E-1
2.602828451E1,8.504651487E-2,-1.115392208E0,7.670469284E-1,1.356353080E0
2.604684769E1,2.489278838E-2,-1.460561633E0,1.722028732E0,2.258150325E0
2.606541086E1,1.150913388E-1,-1.638704300E0,1.711426735E0,2.372251940E0
2.608397404E1,3.097334206E-1,-1.569676995E0,9.777050018E-1,1.875027395E0
2.610253727E1,5.869152546E-1,-1.340228796E0,2.832727432E-1,1.490277219E0
2.612110045E1,7.246370316E-1,-1.222858906E0,-2.959594727E-1,1.451921052E0
2.613966363E1,6.643875837E-1,-1.113449574E0,-6.885051727E-1,1.468066820E0
2.615822680E1,5.609449148E-1,-1.028440952E0,-8.250207901E-1,1.432832612E0
2.617678998E1,5.058045387E-1,-1.067825794E0,-8.394298553E-1,1.449390437E0
2.619539878E1,3.026959300E-1,-1.065659523E0,-7.150487900E-1,1.318540791E0
2.621391633E1,2.288210988E-1,-1.019061804E0,-5.692100525E-1,1.189473051E0
2.623251420E1,2.050646693E-1,-9.060762525E-1,-5.751810074E-1,1.092638497E0
2.625104269E1,2.988968194E-1,-7.688304186E-1,-6.835346222E-1,1.071288524E0
2.626960587E1,3.636959195E-1,-5.782659054E-1,-8.239421844E-1,1.070302248E0
2.628816904E1,3.274957538E-1,-4.407756329E-1,-9.100847244E-1,1.062916193E0
2.630673222E1,1.534692347E-1,-3.936150074E-1,-8.854675293E-1,9.810903758E-1
2.632529540E1,-6.657262892E-2,-3.735064268E-1,-5.651063919E-1,6.806498365E-1
2.634385857E1,-1.186052561E-1,-3.229660988E-1,-1.664724350E-1,3.822137875E-1
2.636242175E1,-1.045792326E-1,-2.367033958E-1,-2.754020691E-2,2.602379229E-1
2.638098493E1,-1.255995929E-1,-1.137512922E-1,-2.801790237E-1,3.274368635E-1
2.639954810E1,-2.361263931E-1,1.952779293E-2,-3.832406998E-1,4.505668010E-1
2.641811128E1,-2.647560537E-1,2.034127712E-2,-1.584844589E-1,3.092359281E-1
2.643667446E1,-3.258108199E-1,-4.918491840E-2,2.735490799E-1,4.282533662E-1
2.645523764E1,-4.926188588E-1,-1.211206913E-1,7.142524719E-1,8.760708622E-1
2.647384764E1,-3.970330954E-1,-1.537897587E-1,9.379940033E-1,1.030106460E0
2.649236399E1,-2.438110560E-1,-3.387963772E-2,9.296092987E-1,9.616470814E-1
2.651092717E1,-4.198738188E-2,1.637748480E-1,6.908769608E-1,7.112637457E-1
2.652949035E1,6.411753595E-2,4.136784077E-1,1.427803040E-1,4.422975227E-1
2.654805352E1,2.797450423E-1,4.415932894E-1,-3.211984634E-1,6.135392203E-1
2.656661670E1,5.266745090E-1,2.077646255E-1,-3.920488358E-1,6.886613593E-1
2.658517988E1,2.317309678E-1,1.148630381E-1,1.032428741E-1,2.784813279E-1
2.660374305E1,3.957829624E-2,-1.126250029E-1,8.897352219E-1,8.977079691E-1
2.662230623E1,2.305331081E-1,-3.296003342E-1,1.500738144E0,1.553704242E0
2.664086941E1,5.369455814E-1,-2.723325491E-1,1.942464828E0,2.033628576E0
2.665943258E1,5.351464748E-1,-1.684514284E-1,1.585428238E0,1.681767026E0
2.667799576E1,2.450234741E-1,-7.669734955E-2,4.972515106E-1,5.596231331E-1
2.669655894E1,1.178137809E-1,7.297146320E-2,-3.673372269E-1,3.926086597E-1
2.671516774E1,3.895865679E-1,1.180593967E-1,-6.671266556E-1,7.815201147E-1
2.673368529E1,6.975641251E-1,1.142787933E-2,-5.009536743E-1,8.588835129E-1
2.675225732E1,8.019967675E-1,-5.062067509E-2,-1.591224670E-1,8.191954757E-1
2.677081165E1,8.234407902E-1,-7.232666016E-2,2.865791321E-3,8.266160496E-1
2.678937482E1,8.715749383E-1,-1.517295837E-1,-1.535530090E-1,8.979105001E-1
2.680793800E1,8.041489124E-1,-2.237952948E-1,-4.437360764E-1,9.453261410E-1
2.682650118E1,5.848538280E-1,-1.902213097E-1,-3.821287155E-1,7.240583553E-1
2.684506436E1,5.069196224E-1,-2.184062004E-1,-9.130382538E-2,5.594686412E-1
2.686362753E1,3.106815815E-1,-7.941687107E-2,3.181171417E-2,3.222453563E-1
2.688219066E1,4.050464034E-1,1.775693893E-2,-3.240423203E-1,5.190195787E-1
2.690075383E1,4.439545274E-1,1.080985069E-1,-9.404554367E-1,1.045579905E0
2.691931701E1,4.226280451E-1,2.190108299E-1,-1.273182869E0,1.359255247E0
2.693788019E1,4.452678263E-1,2.435512543E-1,-1.246789932E0,1.346129929E0
2.695644331E1,4.308564663E-1,2.160308361E-1,-1.058767319E0,1.163312018E0
2.697500654E1,4.130116105E-1,2.288250923E-1,-7.678298950E-1,9.013890730E-1
2.699361529E1,4.776332378E-1,1.456922293E-1,-5.850639343E-1,7.691940866E-1
2.701213290E1,4.584625065E-1,1.501758099E-1,-4.175376892E-1,6.380269318E-1
2.703069607E1,4.237307608E-1,2.234529257E-1,-3.080749512E-1,5.695517037E-1
2.704925925E1,3.592644930E-1,2.662434578E-1,-2.483215332E-1,5.114881608E-1
2.706782243E1,2.261702418E-1,3.405544758E-1,-2.230653763E-1,4.657128851E-1
2.708638560E1,2.640162408E-1,4.004265070E-1,-1.327753067E-1,4.976698152E-1
2.710494873E1,3.335568309E-1,4.194902182E-1,-1.131324768E-1,5.477510017E-1
2.712351191E1,4.384745359E-1,4.028394222E-1,-1.312999725E-1,6.097369938E-1
2.714207508E1,4.651696086E-1,4.435548782E-1,-1.125802994E-1,6.525320058E-1
2.716063826E1,5.254395008E-1,4.714803696E-1,1.021699905E-1,7.133155787E-1
2.717920144E1,5.548945665E-1,4.901264906E-1,3.270168304E-1,8.093651612E-1
2.719776462E1,5.885747075E-1,4.342355728E-1,3.509368896E-1,8.112566915E-1
2.721632779E1,5.509511232E-1,3.699504137E-1,3.796272278E-1,7.645438384E-1
2.723489097E1,4.879598320E-1,2.875735760E-1,6.022052765E-1,8.267131027E-1
2.725345415E1,5.659121871E-1,2.612276077E-1,9.320039749E-1,1.121217140E0
2.727201732E1,6.890146732E-1,1.587768793E-1,8.158426285E-1,1.079606647E0
2.729058045E1,5.178048015E-1,4.199190140E-1,3.408498764E-1,7.487539175E-1
2.730914363E1,4.554574788E-1,8.407158852E-1,-4.797840118E-2,9.573644246E-1
2.732770680E1,9.810016155E-1,8.415088654E-1,-4.650020599E-2,1.293314969E0
2.734626998E1,9.804686308E-1,4.910628796E-1,4.822454453E-1,1.197924103E0
2.736483316E1,5.740938187E-1,-6.534194946E-2,1.123116493E0,1.263029667E0
2.738339633E1,2.151654661E-2,-5.009329319E-1,1.388895988E0,1.476627519E0
2.740195946E1,-3.920099139E-2,-7.135636806E-1,1.178632736E0,1.378363149E0
2.742052264E1,-5.798086524E-2,-6.775263548E-1,7.783641815E-1,1.033564000E0
2.743908581E1,-3.339040875E-1,-4.624465704E-1,1.667785645E-1,5.942759121E-1
2.745764899E1,-4.976814389E-1,-2.109485865E-1,-5.192670822E-1,7.495494803E-1
2.747621217E1,-4.113685787E-1,-1.495697498E-1,-1.115351677E0,1.198167176E0
2.749477534E1,-5.507068634E-1,-6.836915016E-2,-1.449630737E0,1.552218304E0
2.751333847E1,-5.414444208E-1,-2.249475718E-1,-1.279949188E0,1.407847078E0
2.753190165E1,-4.321317673E-1,-4.399163723E-1,-7.388343811E-1,9.623619494E-1
2.755046482E1,-6.067173928E-2,-7.905289531E-1,-9.921073914E-2,7.990368304E-1
2.756902800E1,2.637821734E-1,-1.088517666E0,8.304691315E-1,1.394320882E0
2.758757826E1,2.317524254E-1,-1.206072688E0,1.787343979E0,2.168621455E0
2.760615436E1,-1.255491674E-1,-1.289330244E0,1.709117889E0,2.144578987E0
2.762471753E1,-4.796328247E-1,-1.143007159E0,5.834169388E-1,1.369995743E0
2.764326774E1,-3.320460916E-1,-9.471765161E-1,-5.939483643E-1,1.166264386E0
2.766184383E1,-5.023205280E-2,-7.114958167E-1,-1.224102974E0,1.416748971E0
2.768040701E1,1.619893685E-2,-5.443004370E-1,-1.231460571E0,1.346484500E0
2.769897019E1,-1.650889665E-1,-5.562591553E-1,-8.170490265E-1,1.002121613E0
2.771753331E1,-4.564064145E-1,-6.504590511E-1,-4.420986176E-1,9.093156658E-1
2.773609649E1,-6.027874351E-1,-7.015867829E-1,-2.805347443E-1,9.665797684E-1
2.775470555E1,-6.251332164E-1,-6.376198530E-1,-2.881088257E-1,9.382735798E-1
2.777322285E1,-4.944097996E-1,-5.501995087E-1,-2.828960419E-1,7.919537359E-1
2.779178738E1,-4.773113728E-1,-4.280174971E-1,-4.056835175E-2,6.423946727E-1
2.781034920E1,-3.510106802E-1,-3.987679482E-1,2.815656662E-1,6.012516931E-1
2.782891232E1,-1.989218593E-1,-2.937067747E-1,4.185800552E-1,5.486737084E-1
2.784747550E1,-1.265854836E-1,-2.081644535E-1,3.039169312E-1,3.895148590E-1
2.786603868E1,-2.391418964E-1,-7.714676857E-2,-6.731414795E-2,2.601377808E-1
2.788460186E1,-2.804432213E-1,5.788946152E-2,-4.383125305E-1,5.235622834E-1
2.790316503E1,-2.086023092E-1,1.727900505E-1,-5.413274765E-1,6.053154234E-1
2.792172816E1,-2.340075970E-1,2.367531061E-1,-3.639459610E-1,4.932223142E-1
2.794029133E1,-4.263381362E-1,2.095435858E-1,-7.293701172E-2,4.806168208E-1
2.795885451E1,-6.481981277E-1,9.235310555E-2,1.351594925E-1,6.685491735E-1
2.797741769E1,-7.748420835E-1,3.123092651E-2,3.040237427E-1,8.329382097E-1
2.799598081E1,-6.321074963E-1,2.080225945E-2,4.151878357E-1,7.565537388E-1
2.801454399E1,-4.471296966E-1,2.639365196E-2,5.446577072E-1,7.051762960E-1
2.803315389E1,-2.295171916E-1,9.625434875E-2,6.935138702E-1,7.368205542E-1
2.805167029E1,-1.191248596E-1,2.211230993E-1,4.502611160E-1,5.155785390E-1
2.807023347E1,1.130502224E-1,2.446794510E-1,-9.923553467E-2,2.872213047E-1
2.808879665E1,6.388492584E-1,1.417505741E-1,-4.765701294E-1,8.095311535E-1
2.810735982E1,1.019993901E0,1.519548893E-2,-1.432409286E-1,1.030114763E0
2.812592295E1,9.538276196E-1,-2.906261683E-1,6.571168900E-1,1.194174738E0
2.814447321E1,6.359155178E-1,-4.460706711E-1,1.724111557E0,1.891012493E0
2.816304930E1,5.355465412E-1,-5.184329748E-1,2.141609192E0,2.267613895E0
2.818161248E1,6.034520864E-1,-4.821454287E-1,1.529264450E0,1.713262500E0
2.820017561E1,7.602941990E-1,-3.693329096E-1,3.577070236E-1,9.178280786E-1
2.821873878E1,8.590980768E-1,-2.009342909E-1,-4.586429596E-1,9.943728975E-1
2.823730191E1,1.083883762E0,-1.781722307E-1,-8.429937363E-1,1.384625507E0
2.825586514E1,1.072633982E0,-1.578407288E-1,-1.032071114E0,1.496872786E0
2.827447394E1,1.080661535E0,-2.121407986E-1,-1.005467415E0,1.491240354E0
2.829299144E1,1.193523288E0,-3.348072767E-1,-9.456796646E-1,1.559135587E0
2.831155607E1,1.394846082E0,-4.993081093E-1,-8.965549469E-1,1.731679807E0
2.833011774E1,1.459149837E0,-6.730933785E-1,-7.743663788E-1,1.783764624E0
2.834868092E1,1.276094317E0,-8.152843714E-1,-3.685083389E-1,1.558494052E0
2.836724410E1,9.800776243E-1,-8.524785042E-1,1.302003860E-1,1.305459264E0
2.838580722E1,7.124788761E-1,-6.707608104E-1,2.322387695E-1,1.005724147E0
2.840437040E1,4.978958964E-1,-3.809637427E-1,-1.864347458E-1,6.540578043E-1
2.842293357E1,5.402605534E-1,7.867813110E-4,-7.048501968E-1,8.880855164E-1
2.844149675E1,7.600259185E-1,2.925992012E-1,-9.934110641E-1,1.284569668E0
2.846005988E1,7.797777057E-1,5.221976042E-1,-1.013288498E0,1.381121714E0
2.847862305E1,6.681014895E-1,6.543838978E-1,-9.049682617E-1,1.301362917E0
2.849718623E1,5.897728205E-1,6.759082079E-1,-7.850589752E-1,1.192057666E0
2.851574936E1,6.274648905E-1,6.338908672E-1,-6.877813339E-1,1.126309453E0
2.853431253E1,6.650738120E-1,6.098734140E-1,-4.534044266E-1,1.009873423E0
2.855289154E1,7.204113007E-1,6.434289217E-1,-1.061601639E-1,9.717320617E-1
2.857143883E1,5.963653326E-1,6.471753120E-1,8.353233337E-2,8.840051726E-1
2.859000201E1,4.098638892E-1,6.002759933E-1,-9.088802338E-2,7.325164221E-1
2.860856519E1,1.320365816E-1,6.640509367E-1,-2.704095840E-1,7.290532550E-1
2.862712831E1,-4.393461347E-2,7.197881937E-1,-1.584911346E-2,7.213019399E-1
2.864569149E1,7.487283647E-2,7.278068066E-1,4.868307114E-1,8.788133083E-1
2.866425467E1,1.899929941E-1,6.585321426E-1,6.403303146E-1,9.379684603E-1
2.868281779E1,1.696638465E-1,6.315696239E-1,5.007877350E-1,8.236834138E-1
2.870138097E1,2.587348819E-1,5.537861586E-1,4.619340897E-1,7.661631365E-1
2.871994415E1,3.674025536E-1,4.413666725E-1,4.898490906E-1,7.548121008E-1
2.873850727E1,3.882946968E-1,2.429488897E-1,5.026531219E-1,6.800419808E-1
2.875707040E1,2.540290356E-1,1.865427494E-1,5.779218674E-1,6.582724611E-1
2.877563357E1,2.037594616E-1,1.505528688E-1,5.377788544E-1,5.944662991E-1
2.879424238E1,-6.835028529E-3,2.532408237E-1,2.148170471E-1,3.321505625E-1
2.881275993E1,-1.781864464E-1,3.604218960E-1,-2.100372314E-1,4.536187732E-1
2.883141488E1,-1.429958344E-1,4.141838551E-1,-4.724512100E-1,6.443649744E-1
2.884988623E1,6.825876981E-2,2.348589897E-1,-4.556760788E-1,5.171640876E-1
2.886844936E1,3.817470670E-1,-2.856703997E-1,1.618976593E-1,5.035367439E-1
2.888701253E1,3.327220082E-1,-5.480087996E-1,1.500811577E0,1.632008875E0
2.890557571E1,1.674485654E-1,-8.097076416E-1,2.395337105E0,2.534029466E0
2.892413883E1,-9.612864256E-2,-8.707808256E-1,1.640567780E0,1.859828648E0
2.894270201E1,-1.907931268E-1,-5.993710160E-1,-4.205036163E-2,6.304092837E-1
2.896126519E1,-1.026931331E-1,-2.021878958E-1,-1.303344727E0,1.322926038E0
2.897982831E1,-1.068792790E-1,-2.463316917E-2,-1.669774055E0,1.673372454E0
2.899839149E1,-3.002539873E-1,-1.645288467E-1,-1.226490021E0,1.273381313E0
2.901695462E1,-4.998818040E-1,-3.945540190E-1,-5.788917542E-1,8.606220744E-1
2.903551779E1,-5.778672695E-1,-4.956326485E-1,-1.536197662E-1,7.766474979E-1
2.905408097E1,-3.805617690E-1,-6.759358048E-1,6.564903259E-2,7.784768897E-1
2.907264410E1,-1.531093568E-1,-7.633809447E-1,3.598423004E-1,8.577175660E-1
2.909120727E1,-1.736152917E-1,-7.120563984E-1,8.135795593E-1,1.095024330E0
2.910977040E1,-5.479632020E-1,-6.464909911E-1,9.988298416E-1,1.309914243E0
2.912833357E1,-9.814220667E-1,-5.047597289E-1,7.766799927E-1,1.349519718E0
2.914689670E1,-1.142575741E0,-2.798739672E-1,2.526206970E-1,1.203173295E0
2.916545988E1,-1.121845007E0,-1.197383404E-1,-3.923015594E-1,1.194476456E0
2.918402305E1,-1.104869843E0,-2.979433537E-2,-7.604608536E-1,1.341613126E0
2.920258618E1,-9.180012941E-1,-2.961635590E-3,-7.886686325E-1,1.210261690E0
2.922114936E1,-8.367450833E-1,-9.327292442E-3,-5.854806900E-1,1.021282023E0
2.923971248E1,-9.096112251E-1,-4.109025002E-2,-2.982559204E-1,9.581427783E-1
2.925827566E1,-1.069142580E0,-8.457231522E-2,-4.854202271E-2,1.073580300E0
2.927683878E1,-1.217791796E0,-1.037949324E-1,1.119356155E-1,1.227322218E0
2.929540196E1,-1.083739161E0,-1.535310745E-1,8.797645569E-2,1.098090259E0
2.931396508E1,-7.892140746E-1,-2.484650612E-1,5.875587463E-3,8.274226639E-1
2.933252826E1,-6.814756393E-1,-3.383339643E-1,-2.214908600E-2,7.611632548E-1
2.935109144E1,-7.413396239E-1,-3.226880431E-1,1.077737808E-1,8.156759154E-1
2.936965456E1,-6.316750050E-1,-3.692336679E-1,8.604240417E-2,7.367157584E-1
2.938821774E1,-4.362799525E-1,-3.945756555E-1,-1.655406952E-1,6.110923552E-1
2.940678086E1,-4.144880176E-2,-4.311968684E-1,-3.587722778E-1,5.624644787E-1
2.942534404E1,1.663144380E-1,-3.828054070E-1,-6.644439697E-2,4.226290688E-1
2.944390717E1,8.363685012E-2,-4.177109003E-1,3.171911240E-1,5.311193162E-1
2.946247035E1,-2.349181175E-1,-3.180000782E-1,3.237419128E-1,5.109984323E-1
2.948103347E1,-1.241552830E-1,-2.830853462E-1,-1.439065933E-1,3.409706074E-1
2.949959665E1,4.891016185E-1,-3.197448254E-1,-6.489429474E-1,8.732606115E-1
2.951815977E1,1.417719126E0,-7.278127074E-1,-6.830196381E-1,1.733826601E0
2.953672295E1,1.578069925E0,-1.086568832E0,1.433706284E-1,1.921325494E0
2.955533170E1,1.177754402E0,-1.254019856E0,1.480345726E0,2.269602322E0
2.957384925E1,5.860548019E-1,-1.290130734E0,1.898773193E0,2.369227128E0
2.959241238E1,3.588046432E-1,-9.605674744E-1,1.529773712E0,1.841640099E0
2.961097555E1,5.104062557E-1,-5.440353751E-1,5.212469101E-1,9.100480078E-1
2.962953868E1,8.616398573E-1,-3.687148094E-1,-5.906314850E-1,1.107799353E0
2.964810186E1,9.805006981E-1,-1.793290377E-1,-1.184488297E0,1.548080440E0
2.966666498E1,9.293018579E-1,-3.579044342E-2,-1.161689758E0,1.488088033E0
2.968522816E1,7.437939644E-1,-2.270221710E-3,-8.339738846E-1,1.117473514E0
2.970379128E1,4.693224728E-1,1.466357708E-2,-4.528055191E-1,6.523123808E-1
2.972235446E1,2.565080822E-1,2.827739716E-2,1.975250244E-2,2.588168633E-1
2.974091758E1,9.359475970E-2,-7.579445839E-3,1.732311249E-1,1.970442835E-1
2.975948076E1,-1.208309233E-1,5.988717079E-2,-1.467819214E-1,1.993276642E-1
2.977804389E1,-2.845779061E-1,1.786484718E-1,-7.034091949E-1,7.795411193E-1
2.979660696E1,-2.505364418E-1,3.056565523E-1,-9.958000183E-1,1.071359936E0
2.981517019E1,-1.094503701E-1,3.979384899E-1,-8.946495056E-1,9.852574096E-1
2.983373331E1,-5.473506451E-2,4.573494196E-1,-5.379581451E-1,7.082113984E-1
2.985229649E1,1.059058309E-1,4.055392742E-1,-3.934345245E-1,5.748642214E-1
2.987085962E1,3.564351797E-2,3.761301041E-1,-4.561557770E-1,5.923026325E-1
2.988942279E1,-5.067551136E-2,2.752480507E-1,-3.804807663E-1,4.723294511E-1
2.990798592E1,-1.725034118E-1,1.759847403E-1,-1.141633987E-1,2.715903855E-1
